# log Energy    log Jnu
# (eV)          (ergs/s/cm2/Hz/Sr)
  -6.864        -20.397
  -6.820        -20.310
  -6.777        -20.223
  -6.734        -20.136
  -6.690        -20.050
  -6.647        -19.963
  -6.603        -19.876
  -6.560        -19.789
  -6.516        -19.702
  -6.473        -19.615
  -6.430        -19.529
  -6.386        -19.442
  -6.343        -19.355
  -6.299        -19.268
  -6.256        -19.181
  -6.212        -19.094
  -6.169        -19.008
  -6.126        -18.921
  -6.082        -18.834
  -6.039        -18.747
  -5.995        -18.660
  -5.952        -18.573
  -5.908        -18.487
  -5.865        -18.400
  -5.822        -18.313
  -5.778        -18.226
  -5.735        -18.139
  -5.691        -18.053
  -5.648        -17.966
  -5.605        -17.879
  -5.561        -17.792
  -5.518        -17.705
  -5.474        -17.619
  -5.431        -17.532
  -5.387        -17.445
  -5.344        -17.358
  -5.300        -17.272
  -5.257        -17.185
  -5.214        -17.098
  -5.170        -17.011
  -5.127        -16.925
  -5.083        -16.838
  -5.040        -16.751
  -4.996        -16.665
  -4.953        -16.578
  -4.910        -16.492
  -4.866        -16.405
  -4.823        -16.319
  -4.779        -16.232
  -4.736        -16.146
  -4.692        -16.060
  -4.649        -15.973
  -4.606        -15.887
  -4.562        -15.801
  -4.519        -15.715
  -4.475        -15.629
  -4.432        -15.543
  -4.388        -15.457
  -4.345        -15.371
  -4.302        -15.285
  -4.258        -15.200
  -4.215        -15.114
  -4.171        -15.029
  -4.128        -14.944
  -4.084        -14.859
  -4.041        -14.775
  -3.998        -14.690
  -3.954        -14.606
  -3.911        -14.523
  -3.867        -14.439
  -3.824        -14.356
  -3.781        -14.273
  -3.737        -14.191
  -3.693        -14.109
  -3.650        -14.028
  -3.607        -13.948
  -3.584        -13.910
  -3.582        -13.900
  -3.580        -13.898
  -3.577        -13.895
  -3.575        -13.891
  -3.573        -13.887
  -3.571        -13.883
  -3.569        -13.879
  -3.567        -13.875
  -3.564        -13.871
  -3.562        -13.867
  -3.560        -13.863
  -3.558        -13.859
  -3.556        -13.856
  -3.554        -13.851
  -3.551        -13.847
  -3.549        -13.844
  -3.547        -13.839
  -3.545        -13.835
  -3.543        -13.831
  -3.540        -13.828
  -3.538        -13.824
  -3.536        -13.820
  -3.534        -13.816
  -3.532        -13.812
  -3.530        -13.808
  -3.528        -13.804
  -3.525        -13.800
  -3.523        -13.796
  -3.521        -13.792
  -3.519        -13.788
  -3.517        -13.784
  -3.514        -13.780
  -3.512        -13.776
  -3.510        -13.772
  -3.508        -13.768
  -3.506        -13.765
  -3.504        -13.761
  -3.502        -13.757
  -3.499        -13.753
  -3.497        -13.749
  -3.495        -13.745
  -3.493        -13.741
  -3.491        -13.737
  -3.488        -13.733
  -3.486        -13.730
  -3.484        -13.726
  -3.482        -13.722
  -3.480        -13.718
  -3.477        -13.714
  -3.475        -13.710
  -3.473        -13.706
  -3.471        -13.702
  -3.469        -13.698
  -3.467        -13.694
  -3.464        -13.691
  -3.462        -13.687
  -3.460        -13.683
  -3.458        -13.679
  -3.456        -13.675
  -3.454        -13.671
  -3.451        -13.667
  -3.449        -13.663
  -3.447        -13.660
  -3.445        -13.656
  -3.443        -13.652
  -3.441        -13.648
  -3.438        -13.644
  -3.436        -13.640
  -3.434        -13.637
  -3.432        -13.633
  -3.430        -13.629
  -3.428        -13.625
  -3.425        -13.621
  -3.423        -13.617
  -3.421        -13.613
  -3.419        -13.610
  -3.417        -13.606
  -3.415        -13.602
  -3.412        -13.598
  -3.410        -13.594
  -3.408        -13.591
  -3.406        -13.587
  -3.404        -13.583
  -3.402        -13.579
  -3.399        -13.575
  -3.397        -13.572
  -3.395        -13.568
  -3.393        -13.564
  -3.391        -13.560
  -3.389        -13.556
  -3.386        -13.553
  -3.384        -13.549
  -3.382        -13.545
  -3.380        -13.541
  -3.378        -13.538
  -3.376        -13.534
  -3.373        -13.530
  -3.371        -13.526
  -3.369        -13.523
  -3.367        -13.519
  -3.365        -13.515
  -3.362        -13.511
  -3.360        -13.508
  -3.358        -13.504
  -3.356        -13.500
  -3.354        -13.496
  -3.352        -13.493
  -3.349        -13.489
  -3.347        -13.485
  -3.345        -13.482
  -3.343        -13.478
  -3.341        -13.474
  -3.339        -13.470
  -3.336        -13.467
  -3.334        -13.463
  -3.332        -13.459
  -3.330        -13.456
  -3.328        -13.452
  -3.326        -13.448
  -3.323        -13.445
  -3.321        -13.441
  -3.319        -13.437
  -3.317        -13.433
  -3.315        -13.430
  -3.313        -13.426
  -3.310        -13.422
  -3.308        -13.419
  -3.306        -13.415
  -3.304        -13.412
  -3.302        -13.408
  -3.300        -13.404
  -3.297        -13.401
  -3.295        -13.397
  -3.293        -13.393
  -3.291        -13.390
  -3.289        -13.386
  -3.287        -13.382
  -3.284        -13.379
  -3.282        -13.375
  -3.280        -13.372
  -3.278        -13.368
  -3.276        -13.364
  -3.273        -13.361
  -3.271        -13.357
  -3.269        -13.354
  -3.267        -13.350
  -3.265        -13.346
  -3.263        -13.343
  -3.260        -13.339
  -3.258        -13.336
  -3.256        -13.332
  -3.254        -13.329
  -3.252        -13.325
  -3.250        -13.322
  -3.247        -13.318
  -3.245        -13.314
  -3.243        -13.311
  -3.241        -13.307
  -3.239        -13.304
  -3.237        -13.300
  -3.234        -13.297
  -3.232        -13.293
  -3.230        -13.290
  -3.228        -13.286
  -3.226        -13.283
  -3.224        -13.279
  -3.221        -13.276
  -3.219        -13.272
  -3.217        -13.269
  -3.215        -13.265
  -3.213        -13.262
  -3.211        -13.258
  -3.208        -13.255
  -3.206        -13.252
  -3.204        -13.248
  -3.202        -13.245
  -3.200        -13.241
  -3.197        -13.238
  -3.195        -13.234
  -3.193        -13.231
  -3.191        -13.228
  -3.189        -13.224
  -3.187        -13.220
  -3.184        -13.217
  -3.182        -13.214
  -3.180        -13.211
  -3.178        -13.207
  -3.176        -13.204
  -3.174        -13.200
  -3.171        -13.197
  -3.169        -13.193
  -3.167        -13.190
  -3.165        -13.187
  -3.163        -13.183
  -3.161        -13.180
  -3.158        -13.177
  -3.156        -13.174
  -3.154        -13.170
  -3.152        -13.167
  -3.150        -13.164
  -3.148        -13.160
  -3.145        -13.157
  -3.143        -13.154
  -3.141        -13.150
  -3.139        -13.147
  -3.137        -13.144
  -3.135        -13.140
  -3.132        -13.137
  -3.130        -13.134
  -3.128        -13.131
  -3.126        -13.127
  -3.124        -13.124
  -3.122        -13.121
  -3.119        -13.118
  -3.117        -13.114
  -3.115        -13.111
  -3.113        -13.108
  -3.111        -13.105
  -3.108        -13.101
  -3.106        -13.098
  -3.104        -13.095
  -3.102        -13.092
  -3.100        -13.089
  -3.098        -13.086
  -3.095        -13.083
  -3.093        -13.079
  -3.091        -13.076
  -3.089        -13.073
  -3.087        -13.070
  -3.085        -13.067
  -3.082        -13.064
  -3.080        -13.060
  -3.078        -13.057
  -3.076        -13.054
  -3.074        -13.051
  -3.072        -13.048
  -3.069        -13.045
  -3.067        -13.042
  -3.065        -13.039
  -3.063        -13.036
  -3.061        -13.033
  -3.059        -13.030
  -3.056        -13.027
  -3.054        -13.024
  -3.052        -13.021
  -3.050        -13.017
  -3.048        -13.015
  -3.046        -13.011
  -3.043        -13.009
  -3.041        -13.005
  -3.039        -13.003
  -3.037        -13.000
  -3.035        -12.997
  -3.032        -12.994
  -3.030        -12.991
  -3.028        -12.988
  -3.026        -12.985
  -3.024        -12.982
  -3.022        -12.979
  -3.019        -12.976
  -3.017        -12.973
  -3.015        -12.970
  -3.013        -12.967
  -3.011        -12.965
  -3.009        -12.962
  -3.006        -12.959
  -3.004        -12.956
  -3.002        -12.953
  -3.000        -12.950
  -2.998        -12.947
  -2.996        -12.945
  -2.993        -12.942
  -2.991        -12.939
  -2.989        -12.936
  -2.987        -12.934
  -2.985        -12.931
  -2.983        -12.928
  -2.980        -12.925
  -2.978        -12.922
  -2.976        -12.920
  -2.974        -12.917
  -2.972        -12.914
  -2.970        -12.912
  -2.967        -12.909
  -2.965        -12.906
  -2.963        -12.904
  -2.961        -12.901
  -2.959        -12.898
  -2.956        -12.896
  -2.954        -12.893
  -2.952        -12.890
  -2.950        -12.888
  -2.948        -12.885
  -2.946        -12.883
  -2.944        -12.880
  -2.941        -12.877
  -2.939        -12.875
  -2.937        -12.872
  -2.935        -12.870
  -2.933        -12.867
  -2.930        -12.865
  -2.928        -12.862
  -2.926        -12.860
  -2.924        -12.857
  -2.922        -12.855
  -2.920        -12.852
  -2.917        -12.850
  -2.915        -12.847
  -2.913        -12.845
  -2.911        -12.843
  -2.909        -12.840
  -2.907        -12.838
  -2.904        -12.835
  -2.902        -12.833
  -2.900        -12.831
  -2.898        -12.828
  -2.896        -12.826
  -2.894        -12.824
  -2.891        -12.821
  -2.889        -12.819
  -2.887        -12.817
  -2.885        -12.815
  -2.883        -12.812
  -2.880        -12.810
  -2.878        -12.808
  -2.876        -12.805
  -2.874        -12.803
  -2.872        -12.801
  -2.870        -12.799
  -2.867        -12.797
  -2.865        -12.794
  -2.863        -12.792
  -2.861        -12.790
  -2.859        -12.788
  -2.857        -12.786
  -2.855        -12.784
  -2.852        -12.782
  -2.850        -12.779
  -2.848        -12.778
  -2.846        -12.775
  -2.843        -12.774
  -2.842        -12.771
  -2.839        -12.770
  -2.837        -12.767
  -2.835        -12.765
  -2.833        -12.764
  -2.831        -12.761
  -2.828        -12.760
  -2.826        -12.758
  -2.824        -12.756
  -2.822        -12.754
  -2.820        -12.752
  -2.817        -12.750
  -2.815        -12.748
  -2.813        -12.747
  -2.811        -12.745
  -2.809        -12.743
  -2.807        -12.741
  -2.805        -12.739
  -2.802        -12.738
  -2.800        -12.736
  -2.798        -12.734
  -2.796        -12.732
  -2.794        -12.731
  -2.792        -12.729
  -2.789        -12.727
  -2.787        -12.726
  -2.785        -12.724
  -2.783        -12.722
  -2.781        -12.721
  -2.779        -12.719
  -2.776        -12.718
  -2.774        -12.716
  -2.772        -12.714
  -2.770        -12.713
  -2.767        -12.712
  -2.765        -12.710
  -2.763        -12.709
  -2.761        -12.707
  -2.759        -12.706
  -2.757        -12.704
  -2.754        -12.703
  -2.753        -12.702
  -2.750        -12.700
  -2.748        -12.699
  -2.746        -12.698
  -2.744        -12.696
  -2.741        -12.695
  -2.739        -12.694
  -2.737        -12.692
  -2.735        -12.692
  -2.733        -12.690
  -2.731        -12.689
  -2.729        -12.688
  -2.726        -12.687
  -2.724        -12.686
  -2.722        -12.684
  -2.720        -12.683
  -2.718        -12.682
  -2.716        -12.681
  -2.713        -12.680
  -2.711        -12.679
  -2.709        -12.678
  -2.707        -12.677
  -2.705        -12.676
  -2.703        -12.675
  -2.700        -12.675
  -2.698        -12.673
  -2.696        -12.673
  -2.694        -12.672
  -2.692        -12.671
  -2.689        -12.670
  -2.687        -12.669
  -2.685        -12.668
  -2.683        -12.668
  -2.681        -12.667
  -2.679        -12.666
  -2.677        -12.666
  -2.674        -12.665
  -2.672        -12.665
  -2.670        -12.664
  -2.668        -12.664
  -2.666        -12.663
  -2.663        -12.662
  -2.661        -12.662
  -2.659        -12.661
  -2.657        -12.661
  -2.655        -12.660
  -2.653        -12.660
  -2.650        -12.660
  -2.648        -12.659
  -2.646        -12.659
  -2.644        -12.659
  -2.642        -12.658
  -2.640        -12.658
  -2.637        -12.658
  -2.635        -12.658
  -2.633        -12.657
  -2.631        -12.657
  -2.629        -12.657
  -2.626        -12.657
  -2.624        -12.657
  -2.622        -12.657
  -2.620        -12.657
  -2.618        -12.657
  -2.616        -12.657
  -2.614        -12.657
  -2.611        -12.657
  -2.609        -12.657
  -2.607        -12.657
  -2.605        -12.657
  -2.603        -12.658
  -2.600        -12.658
  -2.598        -12.658
  -2.596        -12.658
  -2.594        -12.659
  -2.592        -12.659
  -2.590        -12.659
  -2.587        -12.660
  -2.585        -12.660
  -2.583        -12.661
  -2.581        -12.661
  -2.579        -12.662
  -2.577        -12.662
  -2.574        -12.663
  -2.572        -12.663
  -2.570        -12.664
  -2.568        -12.665
  -2.566        -12.665
  -2.564        -12.666
  -2.561        -12.667
  -2.559        -12.668
  -2.557        -12.668
  -2.555        -12.669
  -2.553        -12.670
  -2.551        -12.671
  -2.548        -12.672
  -2.546        -12.673
  -2.544        -12.674
  -2.542        -12.675
  -2.540        -12.676
  -2.538        -12.677
  -2.535        -12.678
  -2.533        -12.680
  -2.531        -12.681
  -2.529        -12.682
  -2.527        -12.683
  -2.525        -12.684
  -2.522        -12.686
  -2.520        -12.687
  -2.518        -12.689
  -2.516        -12.690
  -2.514        -12.692
  -2.511        -12.693
  -2.509        -12.695
  -2.507        -12.696
  -2.505        -12.698
  -2.503        -12.700
  -2.501        -12.701
  -2.498        -12.703
  -2.496        -12.705
  -2.494        -12.707
  -2.492        -12.709
  -2.490        -12.711
  -2.488        -12.712
  -2.485        -12.714
  -2.483        -12.717
  -2.481        -12.719
  -2.479        -12.721
  -2.477        -12.723
  -2.475        -12.725
  -2.472        -12.727
  -2.470        -12.729
  -2.468        -12.732
  -2.466        -12.734
  -2.464        -12.736
  -2.462        -12.739
  -2.459        -12.741
  -2.457        -12.744
  -2.455        -12.746
  -2.453        -12.749
  -2.451        -12.752
  -2.448        -12.754
  -2.446        -12.757
  -2.444        -12.760
  -2.442        -12.763
  -2.440        -12.765
  -2.438        -12.768
  -2.435        -12.771
  -2.433        -12.774
  -2.431        -12.777
  -2.429        -12.780
  -2.427        -12.783
  -2.425        -12.787
  -2.422        -12.790
  -2.420        -12.793
  -2.418        -12.796
  -2.416        -12.800
  -2.414        -12.803
  -2.412        -12.807
  -2.409        -12.810
  -2.407        -12.813
  -2.405        -12.817
  -2.403        -12.821
  -2.401        -12.824
  -2.398        -12.828
  -2.396        -12.832
  -2.394        -12.836
  -2.392        -12.840
  -2.390        -12.844
  -2.388        -12.847
  -2.386        -12.852
  -2.383        -12.856
  -2.381        -12.860
  -2.379        -12.864
  -2.377        -12.868
  -2.375        -12.872
  -2.372        -12.877
  -2.370        -12.881
  -2.368        -12.886
  -2.366        -12.890
  -2.364        -12.895
  -2.362        -12.899
  -2.359        -12.904
  -2.357        -12.909
  -2.355        -12.914
  -2.353        -12.918
  -2.351        -12.923
  -2.349        -12.928
  -2.346        -12.933
  -2.344        -12.938
  -2.342        -12.943
  -2.340        -12.948
  -2.338        -12.953
  -2.336        -12.959
  -2.333        -12.964
  -2.331        -12.970
  -2.329        -12.975
  -2.327        -12.981
  -2.325        -12.986
  -2.323        -12.992
  -2.320        -12.997
  -2.318        -13.003
  -2.316        -13.009
  -2.314        -13.015
  -2.312        -13.021
  -2.309        -13.027
  -2.307        -13.033
  -2.305        -13.039
  -2.303        -13.045
  -2.301        -13.051
  -2.299        -13.058
  -2.297        -13.064
  -2.294        -13.070
  -2.292        -13.077
  -2.290        -13.083
  -2.288        -13.090
  -2.286        -13.097
  -2.283        -13.103
  -2.281        -13.110
  -2.279        -13.117
  -2.277        -13.124
  -2.275        -13.131
  -2.273        -13.138
  -2.270        -13.145
  -2.268        -13.152
  -2.266        -13.160
  -2.264        -13.167
  -2.262        -13.174
  -2.260        -13.182
  -2.257        -13.189
  -2.255        -13.197
  -2.253        -13.205
  -2.251        -13.213
  -2.249        -13.220
  -2.247        -13.228
  -2.244        -13.236
  -2.242        -13.244
  -2.240        -13.252
  -2.238        -13.261
  -2.236        -13.269
  -2.234        -13.277
  -2.231        -13.285
  -2.229        -13.294
  -2.227        -13.303
  -2.225        -13.311
  -2.223        -13.320
  -2.220        -13.329
  -2.218        -13.338
  -2.216        -13.347
  -2.214        -13.356
  -2.212        -13.365
  -2.210        -13.374
  -2.207        -13.383
  -2.205        -13.392
  -2.203        -13.402
  -2.201        -13.411
  -2.199        -13.421
  -2.197        -13.430
  -2.194        -13.440
  -2.192        -13.450
  -2.190        -13.460
  -2.188        -13.470
  -2.186        -13.480
  -2.184        -13.490
  -2.181        -13.500
  -2.179        -13.511
  -2.177        -13.521
  -2.175        -13.531
  -2.173        -13.542
  -2.171        -13.553
  -2.168        -13.563
  -2.166        -13.574
  -2.164        -13.585
  -2.162        -13.596
  -2.160        -13.607
  -2.158        -13.618
  -2.155        -13.630
  -2.153        -13.641
  -2.151        -13.652
  -2.149        -13.664
  -2.147        -13.675
  -2.145        -13.687
  -2.142        -13.699
  -2.140        -13.711
  -2.138        -13.723
  -2.136        -13.735
  -2.134        -13.747
  -2.131        -13.759
  -2.129        -13.772
  -2.127        -13.784
  -2.125        -13.797
  -2.123        -13.809
  -2.121        -13.822
  -2.118        -13.835
  -2.116        -13.848
  -2.114        -13.861
  -2.112        -13.874
  -2.110        -13.887
  -2.108        -13.900
  -2.105        -13.914
  -2.103        -13.927
  -2.101        -13.941
  -2.099        -13.955
  -2.097        -13.968
  -2.095        -13.982
  -2.092        -13.997
  -2.090        -14.011
  -2.088        -14.025
  -2.086        -14.039
  -2.084        -14.054
  -2.082        -14.068
  -2.079        -14.083
  -2.077        -14.098
  -2.075        -14.112
  -2.073        -14.127
  -2.071        -14.142
  -2.069        -14.158
  -2.066        -14.173
  -2.064        -14.188
  -2.062        -14.204
  -2.060        -14.219
  -2.058        -14.235
  -2.056        -14.251
  -2.053        -14.267
  -2.051        -14.283
  -2.049        -14.299
  -2.047        -14.315
  -2.045        -14.332
  -2.043        -14.348
  -2.040        -14.365
  -2.038        -14.382
  -2.036        -14.399
  -2.034        -14.415
  -2.032        -14.433
  -2.029        -14.450
  -2.027        -14.467
  -2.025        -14.485
  -2.023        -14.502
  -2.021        -14.520
  -2.019        -14.538
  -2.016        -14.556
  -2.014        -14.574
  -2.012        -14.592
  -2.010        -14.610
  -2.008        -14.629
  -2.006        -14.647
  -2.003        -14.666
  -2.001        -14.685
  -1.999        -14.704
  -1.997        -14.723
  -1.995        -14.742
  -1.993        -14.761
  -1.990        -14.781
  -1.988        -14.800
  -1.986        -14.820
  -1.984        -14.840
  -1.982        -14.860
  -1.980        -14.880
  -1.977        -14.900
  -1.975        -14.921
  -1.973        -14.941
  -1.971        -14.962
  -1.969        -14.983
  -1.967        -15.003
  -1.964        -15.024
  -1.962        -15.046
  -1.960        -15.067
  -1.958        -15.089
  -1.956        -15.110
  -1.953        -15.132
  -1.951        -15.154
  -1.949        -15.176
  -1.947        -15.198
  -1.945        -15.220
  -1.943        -15.243
  -1.940        -15.265
  -1.938        -15.288
  -1.936        -15.311
  -1.934        -15.334
  -1.932        -15.357
  -1.930        -15.381
  -1.927        -15.404
  -1.925        -15.428
  -1.923        -15.452
  -1.921        -15.475
  -1.919        -15.499
  -1.917        -15.524
  -1.914        -15.548
  -1.912        -15.573
  -1.910        -15.598
  -1.908        -15.622
  -1.906        -15.647
  -1.904        -15.673
  -1.901        -15.698
  -1.899        -15.723
  -1.897        -15.749
  -1.895        -15.775
  -1.893        -15.801
  -1.891        -15.827
  -1.888        -15.853
  -1.886        -15.880
  -1.884        -15.907
  -1.882        -15.933
  -1.880        -15.960
  -1.877        -15.987
  -1.875        -16.015
  -1.873        -16.042
  -1.871        -16.069
  -1.869        -16.098
  -1.867        -16.125
  -1.864        -16.154
  -1.862        -16.182
  -1.860        -16.210
  -1.858        -16.239
  -1.856        -16.268
  -1.853        -16.297
  -1.851        -16.326
  -1.849        -16.355
  -1.847        -16.385
  -1.845        -16.414
  -1.843        -16.444
  -1.841        -16.474
  -1.838        -16.504
  -1.836        -16.535
  -1.834        -16.565
  -1.832        -16.596
  -1.830        -16.627
  -1.828        -16.658
  -1.825        -16.689
  -1.823        -16.720
  -1.821        -16.752
  -1.819        -16.783
  -1.817        -16.815
  -1.815        -16.847
  -1.812        -16.880
  -1.810        -16.912
  -1.808        -16.945
  -1.806        -16.977
  -1.804        -17.010
  -1.801        -17.043
  -1.799        -17.076
  -1.797        -17.109
  -1.795        -17.143
  -1.793        -17.176
  -1.791        -17.210
  -1.788        -17.244
  -1.786        -17.278
  -1.784        -17.312
  -1.782        -17.346
  -1.780        -17.381
  -1.777        -17.415
  -1.775        -17.450
  -1.773        -17.484
  -1.771        -17.519
  -1.769        -17.553
  -1.767        -17.588
  -1.764        -17.623
  -1.763        -17.657
  -1.760        -17.692
  -1.758        -17.727
  -1.756        -17.761
  -1.754        -17.796
  -1.752        -17.830
  -1.749        -17.865
  -1.747        -17.899
  -1.745        -17.933
  -1.743        -17.967
  -1.741        -18.000
  -1.739        -18.033
  -1.736        -18.066
  -1.734        -18.099
  -1.732        -18.131
  -1.730        -18.162
  -1.728        -18.194
  -1.726        -18.224
  -1.723        -18.254
  -1.721        -18.284
  -1.719        -18.313
  -1.717        -18.341
  -1.715        -18.368
  -1.713        -18.395
  -1.710        -18.421
  -1.708        -18.445
  -1.706        -18.469
  -1.704        -18.493
  -1.702        -18.515
  -1.699        -18.536
  -1.697        -18.556
  -1.695        -18.575
  -1.693        -18.594
  -1.691        -18.611
  -1.689        -18.628
  -1.686        -18.643
  -1.684        -18.657
  -1.682        -18.671
  -1.680        -18.684
  -1.678        -18.696
  -1.675        -18.707
  -1.673        -18.717
  -1.671        -18.727
  -1.669        -18.735
  -1.667        -18.744
  -1.665        -18.752
  -1.663        -18.759
  -1.660        -18.765
  -1.658        -18.771
  -1.656        -18.777
  -1.654        -18.782
  -1.652        -18.786
  -1.650        -18.791
  -1.647        -18.795
  -1.645        -18.798
  -1.643        -18.802
  -1.641        -18.805
  -1.639        -18.808
  -1.637        -18.811
  -1.634        -18.813
  -1.632        -18.816
  -1.630        -18.818
  -1.628        -18.820
  -1.626        -18.822
  -1.623        -18.824
  -1.621        -18.825
  -1.619        -18.827
  -1.617        -18.828
  -1.615        -18.830
  -1.613        -18.831
  -1.611        -18.832
  -1.608        -18.834
  -1.606        -18.835
  -1.604        -18.836
  -1.602        -18.837
  -1.600        -18.839
  -1.597        -18.840
  -1.595        -18.840
  -1.593        -18.841
  -1.591        -18.843
  -1.589        -18.844
  -1.587        -18.845
  -1.584        -18.846
  -1.582        -18.847
  -1.580        -18.848
  -1.578        -18.848
  -1.576        -18.849
  -1.573        -18.850
  -1.571        -18.851
  -1.569        -18.852
  -1.567        -18.853
  -1.565        -18.854
  -1.563        -18.854
  -1.561        -18.855
  -1.558        -18.856
  -1.556        -18.857
  -1.554        -18.858
  -1.552        -18.859
  -1.550        -18.860
  -1.547        -18.861
  -1.545        -18.861
  -1.543        -18.862
  -1.541        -18.863
  -1.539        -18.864
  -1.537        -18.865
  -1.534        -18.866
  -1.532        -18.866
  -1.530        -18.867
  -1.528        -18.868
  -1.526        -18.869
  -1.524        -18.870
  -1.522        -18.871
  -1.519        -18.871
  -1.517        -18.872
  -1.515        -18.873
  -1.513        -18.874
  -1.511        -18.874
  -1.508        -18.876
  -1.506        -18.876
  -1.504        -18.877
  -1.502        -18.878
  -1.500        -18.879
  -1.498        -18.880
  -1.495        -18.880
  -1.493        -18.881
  -1.491        -18.882
  -1.489        -18.883
  -1.487        -18.884
  -1.484        -18.885
  -1.482        -18.885
  -1.480        -18.886
  -1.478        -18.887
  -1.476        -18.888
  -1.474        -18.889
  -1.472        -18.890
  -1.469        -18.891
  -1.467        -18.891
  -1.465        -18.892
  -1.463        -18.893
  -1.461        -18.894
  -1.458        -18.895
  -1.456        -18.895
  -1.454        -18.896
  -1.452        -18.897
  -1.450        -18.898
  -1.448        -18.899
  -1.445        -18.900
  -1.443        -18.900
  -1.441        -18.901
  -1.439        -18.902
  -1.437        -18.903
  -1.435        -18.904
  -1.432        -18.904
  -1.430        -18.905
  -1.428        -18.906
  -1.426        -18.907
  -1.424        -18.907
  -1.422        -18.909
  -1.419        -18.909
  -1.417        -18.910
  -1.415        -18.911
  -1.413        -18.912
  -1.411        -18.912
  -1.409        -18.913
  -1.406        -18.914
  -1.404        -18.915
  -1.402        -18.916
  -1.400        -18.917
  -1.398        -18.917
  -1.396        -18.918
  -1.393        -18.919
  -1.391        -18.920
  -1.389        -18.921
  -1.387        -18.922
  -1.385        -18.922
  -1.383        -18.923
  -1.380        -18.924
  -1.378        -18.925
  -1.376        -18.926
  -1.374        -18.926
  -1.372        -18.927
  -1.370        -18.928
  -1.367        -18.929
  -1.365        -18.930
  -1.363        -18.930
  -1.361        -18.931
  -1.359        -18.932
  -1.356        -18.933
  -1.354        -18.934
  -1.352        -18.935
  -1.350        -18.936
  -1.348        -18.936
  -1.346        -18.937
  -1.343        -18.938
  -1.341        -18.939
  -1.339        -18.940
  -1.337        -18.940
  -1.335        -18.941
  -1.333        -18.942
  -1.330        -18.943
  -1.328        -18.943
  -1.326        -18.944
  -1.324        -18.945
  -1.322        -18.946
  -1.320        -18.947
  -1.317        -18.948
  -1.315        -18.948
  -1.313        -18.949
  -1.311        -18.950
  -1.309        -18.951
  -1.307        -18.952
  -1.304        -18.953
  -1.302        -18.953
  -1.300        -18.954
  -1.298        -18.955
  -1.296        -18.956
  -1.293        -18.957
  -1.291        -18.958
  -1.289        -18.959
  -1.287        -18.959
  -1.285        -18.960
  -1.283        -18.961
  -1.280        -18.962
  -1.278        -18.963
  -1.276        -18.963
  -1.274        -18.964
  -1.272        -18.965
  -1.270        -18.966
  -1.267        -18.967
  -1.265        -18.967
  -1.263        -18.968
  -1.261        -18.969
  -1.259        -18.970
  -1.257        -18.971
  -1.254        -18.971
  -1.252        -18.972
  -1.250        -18.973
  -1.248        -18.974
  -1.246        -18.975
  -1.243        -18.976
  -1.241        -18.977
  -1.239        -18.978
  -1.237        -18.978
  -1.235        -18.979
  -1.233        -18.980
  -1.231        -18.981
  -1.228        -18.982
  -1.226        -18.983
  -1.224        -18.983
  -1.222        -18.984
  -1.220        -18.985
  -1.217        -18.986
  -1.215        -18.987
  -1.213        -18.988
  -1.211        -18.989
  -1.209        -18.989
  -1.207        -18.990
  -1.204        -18.991
  -1.202        -18.992
  -1.200        -18.993
  -1.198        -18.994
  -1.196        -18.995
  -1.194        -18.996
  -1.191        -18.997
  -1.189        -18.998
  -1.187        -18.998
  -1.185        -18.999
  -1.183        -19.000
  -1.181        -19.001
  -1.178        -19.002
  -1.176        -19.003
  -1.174        -19.004
  -1.172        -19.005
  -1.170        -19.006
  -1.168        -19.007
  -1.165        -19.008
  -1.163        -19.009
  -1.161        -19.010
  -1.159        -19.011
  -1.157        -19.012
  -1.155        -19.013
  -1.152        -19.014
  -1.150        -19.015
  -1.148        -19.016
  -1.146        -19.017
  -1.144        -19.018
  -1.142        -19.019
  -1.139        -19.020
  -1.137        -19.021
  -1.135        -19.022
  -1.133        -19.023
  -1.131        -19.024
  -1.129        -19.025
  -1.126        -19.027
  -1.124        -19.028
  -1.122        -19.029
  -1.120        -19.030
  -1.118        -19.031
  -1.115        -19.032
  -1.113        -19.033
  -1.111        -19.035
  -1.109        -19.036
  -1.107        -19.037
  -1.105        -19.038
  -1.102        -19.039
  -1.100        -19.041
  -1.098        -19.042
  -1.096        -19.043
  -1.094        -19.044
  -1.092        -19.046
  -1.089        -19.047
  -1.087        -19.048
  -1.085        -19.049
  -1.083        -19.051
  -1.081        -19.052
  -1.079        -19.054
  -1.076        -19.055
  -1.074        -19.056
  -1.072        -19.058
  -1.070        -19.059
  -1.068        -19.060
  -1.066        -19.062
  -1.063        -19.063
  -1.061        -19.065
  -1.059        -19.066
  -1.057        -19.068
  -1.055        -19.070
  -1.052        -19.071
  -1.050        -19.073
  -1.048        -19.074
  -1.046        -19.076
  -1.044        -19.078
  -1.042        -19.079
  -1.039        -19.081
  -1.037        -19.083
  -1.035        -19.085
  -1.033        -19.086
  -1.031        -19.088
  -1.029        -19.090
  -1.026        -19.092
  -1.024        -19.094
  -1.022        -19.096
  -1.020        -19.098
  -1.018        -19.100
  -1.016        -19.102
  -1.013        -19.104
  -1.011        -19.106
  -1.009        -19.108
  -1.007        -19.110
  -1.005        -19.112
  -1.003        -19.114
  -1.000        -19.116
  -0.998        -19.118
  -0.996        -19.120
  -0.994        -19.122
  -0.992        -19.124
  -0.990        -19.126
  -0.987        -19.128
  -0.985        -19.130
  -0.983        -19.132
  -0.981        -19.134
  -0.979        -19.136
  -0.977        -19.138
  -0.974        -19.140
  -0.972        -19.143
  -0.970        -19.145
  -0.968        -19.147
  -0.966        -19.149
  -0.963        -19.150
  -0.961        -19.152
  -0.959        -19.154
  -0.957        -19.156
  -0.955        -19.158
  -0.953        -19.160
  -0.950        -19.162
  -0.948        -19.164
  -0.946        -19.166
  -0.944        -19.167
  -0.942        -19.169
  -0.940        -19.171
  -0.937        -19.173
  -0.935        -19.174
  -0.933        -19.176
  -0.931        -19.178
  -0.929        -19.180
  -0.927        -19.182
  -0.924        -19.183
  -0.922        -19.185
  -0.920        -19.186
  -0.918        -19.188
  -0.916        -19.190
  -0.914        -19.191
  -0.911        -19.193
  -0.909        -19.195
  -0.907        -19.196
  -0.905        -19.198
  -0.903        -19.199
  -0.900        -19.201
  -0.898        -19.202
  -0.896        -19.204
  -0.894        -19.205
  -0.892        -19.206
  -0.890        -19.208
  -0.887        -19.210
  -0.885        -19.211
  -0.883        -19.212
  -0.881        -19.214
  -0.879        -19.215
  -0.877        -19.216
  -0.874        -19.218
  -0.872        -19.219
  -0.870        -19.220
  -0.868        -19.222
  -0.866        -19.223
  -0.864        -19.224
  -0.862        -19.225
  -0.859        -19.227
  -0.857        -19.228
  -0.855        -19.229
  -0.853        -19.230
  -0.851        -19.231
  -0.848        -19.233
  -0.846        -19.233
  -0.844        -19.235
  -0.842        -19.236
  -0.840        -19.237
  -0.838        -19.238
  -0.835        -19.239
  -0.833        -19.240
  -0.831        -19.241
  -0.829        -19.242
  -0.827        -19.242
  -0.825        -19.244
  -0.822        -19.245
  -0.820        -19.245
  -0.818        -19.246
  -0.816        -19.247
  -0.814        -19.248
  -0.812        -19.249
  -0.809        -19.250
  -0.807        -19.250
  -0.805        -19.251
  -0.803        -19.252
  -0.801        -19.253
  -0.799        -19.253
  -0.796        -19.254
  -0.794        -19.255
  -0.792        -19.256
  -0.790        -19.256
  -0.788        -19.257
  -0.785        -19.258
  -0.783        -19.258
  -0.781        -19.259
  -0.779        -19.259
  -0.777        -19.260
  -0.774        -19.261
  -0.772        -19.261
  -0.770        -19.262
  -0.768        -19.262
  -0.766        -19.262
  -0.764        -19.263
  -0.762        -19.264
  -0.759        -19.264
  -0.757        -19.264
  -0.755        -19.264
  -0.753        -19.265
  -0.751        -19.265
  -0.748        -19.265
  -0.746        -19.265
  -0.744        -19.266
  -0.742        -19.266
  -0.740        -19.266
  -0.738        -19.266
  -0.736        -19.266
  -0.733        -19.266
  -0.731        -19.266
  -0.729        -19.266
  -0.727        -19.266
  -0.725        -19.266
  -0.723        -19.266
  -0.720        -19.266
  -0.718        -19.266
  -0.716        -19.266
  -0.714        -19.265
  -0.712        -19.265
  -0.709        -19.265
  -0.707        -19.264
  -0.705        -19.264
  -0.703        -19.264
  -0.701        -19.264
  -0.699        -19.263
  -0.697        -19.263
  -0.694        -19.262
  -0.692        -19.262
  -0.690        -19.261
  -0.688        -19.261
  -0.685        -19.260
  -0.683        -19.260
  -0.681        -19.259
  -0.679        -19.259
  -0.677        -19.258
  -0.675        -19.257
  -0.673        -19.256
  -0.670        -19.256
  -0.668        -19.255
  -0.666        -19.254
  -0.664        -19.254
  -0.662        -19.253
  -0.659        -19.252
  -0.657        -19.251
  -0.655        -19.250
  -0.653        -19.249
  -0.651        -19.248
  -0.649        -19.247
  -0.647        -19.246
  -0.644        -19.245
  -0.642        -19.244
  -0.640        -19.243
  -0.638        -19.242
  -0.636        -19.241
  -0.633        -19.240
  -0.631        -19.239
  -0.629        -19.238
  -0.627        -19.237
  -0.625        -19.235
  -0.623        -19.234
  -0.621        -19.233
  -0.618        -19.232
  -0.616        -19.230
  -0.614        -19.229
  -0.612        -19.228
  -0.610        -19.226
  -0.608        -19.225
  -0.605        -19.223
  -0.603        -19.222
  -0.601        -19.220
  -0.599        -19.219
  -0.596        -19.218
  -0.594        -19.216
  -0.592        -19.215
  -0.590        -19.213
  -0.588        -19.211
  -0.586        -19.210
  -0.584        -19.208
  -0.581        -19.207
  -0.579        -19.205
  -0.577        -19.203
  -0.575        -19.202
  -0.573        -19.200
  -0.571        -19.199
  -0.568        -19.197
  -0.566        -19.196
  -0.564        -19.194
  -0.562        -19.192
  -0.560        -19.191
  -0.557        -19.189
  -0.555        -19.188
  -0.553        -19.186
  -0.551        -19.185
  -0.549        -19.183
  -0.547        -19.182
  -0.544        -19.180
  -0.542        -19.179
  -0.540        -19.177
  -0.538        -19.176
  -0.536        -19.174
  -0.534        -19.173
  -0.531        -19.171
  -0.529        -19.170
  -0.527        -19.168
  -0.525        -19.167
  -0.523        -19.165
  -0.521        -19.164
  -0.518        -19.163
  -0.516        -19.161
  -0.514        -19.160
  -0.512        -19.158
  -0.510        -19.157
  -0.507        -19.155
  -0.505        -19.154
  -0.503        -19.152
  -0.501        -19.151
  -0.499        -19.149
  -0.497        -19.148
  -0.495        -19.146
  -0.492        -19.145
  -0.490        -19.144
  -0.488        -19.142
  -0.486        -19.141
  -0.484        -19.139
  -0.482        -19.138
  -0.479        -19.136
  -0.477        -19.135
  -0.475        -19.133
  -0.473        -19.132
  -0.471        -19.130
  -0.468        -19.129
  -0.466        -19.127
  -0.464        -19.126
  -0.462        -19.124
  -0.460        -19.123
  -0.458        -19.121
  -0.455        -19.120
  -0.453        -19.119
  -0.451        -19.117
  -0.449        -19.116
  -0.447        -19.114
  -0.445        -19.113
  -0.442        -19.111
  -0.440        -19.110
  -0.438        -19.108
  -0.436        -19.107
  -0.434        -19.105
  -0.432        -19.104
  -0.429        -19.103
  -0.427        -19.101
  -0.425        -19.100
  -0.423        -19.098
  -0.421        -19.097
  -0.419        -19.095
  -0.416        -19.094
  -0.414        -19.092
  -0.412        -19.091
  -0.410        -19.090
  -0.408        -19.088
  -0.405        -19.087
  -0.403        -19.085
  -0.401        -19.084
  -0.399        -19.082
  -0.397        -19.081
  -0.395        -19.079
  -0.392        -19.078
  -0.390        -19.077
  -0.388        -19.075
  -0.386        -19.074
  -0.384        -19.072
  -0.382        -19.071
  -0.379        -19.069
  -0.377        -19.068
  -0.375        -19.067
  -0.373        -19.065
  -0.371        -19.064
  -0.369        -19.062
  -0.366        -19.061
  -0.364        -19.060
  -0.362        -19.058
  -0.360        -19.056
  -0.358        -19.055
  -0.356        -19.054
  -0.353        -19.052
  -0.351        -19.051
  -0.349        -19.049
  -0.347        -19.048
  -0.345        -19.047
  -0.343        -19.045
  -0.340        -19.044
  -0.338        -19.042
  -0.336        -19.041
  -0.334        -19.039
  -0.332        -19.038
  -0.330        -19.036
  -0.327        -19.035
  -0.325        -19.033
  -0.323        -19.032
  -0.321        -19.031
  -0.319        -19.029
  -0.316        -19.028
  -0.314        -19.027
  -0.312        -19.025
  -0.310        -19.024
  -0.308        -19.023
  -0.306        -19.021
  -0.303        -19.020
  -0.301        -19.019
  -0.299        -19.018
  -0.297        -19.017
  -0.295        -19.016
  -0.293        -19.015
  -0.290        -19.014
  -0.288        -19.013
  -0.286        -19.012
  -0.284        -19.011
  -0.282        -19.010
  -0.280        -19.009
  -0.277        -19.008
  -0.275        -19.008
  -0.273        -19.007
  -0.271        -19.006
  -0.269        -19.005
  -0.267        -19.005
  -0.264        -19.004
  -0.262        -19.003
  -0.260        -19.003
  -0.258        -19.002
  -0.256        -19.001
  -0.253        -19.001
  -0.251        -19.000
  -0.249        -18.999
  -0.247        -18.999
  -0.245        -18.998
  -0.243        -18.997
  -0.241        -18.997
  -0.238        -18.996
  -0.236        -18.996
  -0.234        -18.996
  -0.232        -18.995
  -0.230        -18.995
  -0.227        -18.994
  -0.225        -18.994
  -0.223        -18.993
  -0.221        -18.993
  -0.219        -18.992
  -0.217        -18.992
  -0.214        -18.992
  -0.212        -18.992
  -0.210        -18.991
  -0.208        -18.991
  -0.206        -18.991
  -0.204        -18.990
  -0.201        -18.990
  -0.199        -18.990
  -0.197        -18.990
  -0.195        -18.990
  -0.193        -18.990
  -0.191        -18.989
  -0.188        -18.989
  -0.186        -18.989
  -0.184        -18.989
  -0.182        -18.989
  -0.180        -18.989
  -0.178        -18.989
  -0.175        -18.989
  -0.173        -18.989
  -0.171        -18.989
  -0.169        -18.989
  -0.167        -18.990
  -0.164        -18.990
  -0.162        -18.990
  -0.160        -18.990
  -0.158        -18.990
  -0.156        -18.991
  -0.154        -18.991
  -0.151        -18.991
  -0.149        -18.991
  -0.147        -18.992
  -0.145        -18.992
  -0.143        -18.993
  -0.141        -18.993
  -0.138        -18.993
  -0.136        -18.994
  -0.134        -18.994
  -0.132        -18.994
  -0.130        -18.995
  -0.128        -18.995
  -0.125        -18.995
  -0.123        -18.996
  -0.121        -18.996
  -0.119        -18.996
  -0.117        -18.997
  -0.115        -18.997
  -0.112        -18.997
  -0.110        -18.998
  -0.108        -18.998
  -0.106        -18.998
  -0.104        -18.998
  -0.102        -18.999
  -0.099        -18.999
  -0.097        -18.999
  -0.095        -18.999
  -0.093        -18.999
  -0.091        -18.999
  -0.089        -19.000
  -0.086        -19.000
  -0.084        -19.000
  -0.082        -19.000
  -0.080        -19.000
  -0.078        -19.000
  -0.075        -19.000
  -0.073        -19.000
  -0.071        -19.000
  -0.069        -19.001
  -0.067        -19.001
  -0.065        -19.001
  -0.063        -19.001
  -0.060        -19.001
  -0.058        -19.001
  -0.056        -19.001
  -0.054        -19.001
  -0.052        -19.001
  -0.049        -19.001
  -0.047        -19.002
  -0.045        -19.002
  -0.043        -19.002
  -0.041        -19.002
  -0.039        -19.002
  -0.036        -19.002
  -0.034        -19.002
  -0.032        -19.002
  -0.030        -19.002
  -0.028        -19.003
  -0.026        -19.003
  -0.023        -19.003
  -0.021        -19.003
  -0.019        -19.003
  -0.017        -19.003
  -0.015        -19.003
  -0.013        -19.003
  -0.010        -19.003
  -0.008        -19.003
  -0.006        -19.003
  -0.004        -19.003
  -0.002        -19.003
   0.000        -19.003
   0.003        -19.004
   0.005        -19.004
   0.007        -19.004
   0.009        -19.004
   0.011        -19.004
   0.013        -19.004
   0.016        -19.004
   0.018        -19.004
   0.020        -19.004
   0.022        -19.004
   0.024        -19.004
   0.027        -19.004
   0.029        -19.004
   0.031        -19.004
   0.033        -19.004
   0.035        -19.005
   0.037        -19.005
   0.040        -19.005
   0.042        -19.005
   0.044        -19.005
   0.046        -19.005
   0.048        -19.005
   0.050        -19.006
   0.053        -19.006
   0.055        -19.006
   0.057        -19.007
   0.059        -19.007
   0.061        -19.007
   0.063        -19.008
   0.066        -19.008
   0.068        -19.008
   0.070        -19.009
   0.072        -19.009
   0.074        -19.009
   0.076        -19.010
   0.079        -19.010
   0.081        -19.011
   0.083        -19.011
   0.085        -19.011
   0.087        -19.012
   0.089        -19.012
   0.092        -19.012
   0.094        -19.013
   0.096        -19.013
   0.098        -19.014
   0.100        -19.014
   0.103        -19.015
   0.105        -19.015
   0.107        -19.015
   0.109        -19.016
   0.111        -19.016
   0.113        -19.017
   0.116        -19.017
   0.118        -19.018
   0.120        -19.018
   0.122        -19.019
   0.124        -19.019
   0.126        -19.020
   0.128        -19.020
   0.131        -19.020
   0.133        -19.021
   0.135        -19.022
   0.137        -19.022
   0.139        -19.022
   0.142        -19.023
   0.144        -19.023
   0.146        -19.023
   0.148        -19.024
   0.150        -19.024
   0.153        -19.025
   0.155        -19.025
   0.157        -19.026
   0.159        -19.026
   0.161        -19.027
   0.163        -19.027
   0.165        -19.027
   0.168        -19.028
   0.170        -19.028
   0.172        -19.029
   0.174        -19.029
   0.176        -19.030
   0.178        -19.030
   0.181        -19.031
   0.183        -19.031
   0.185        -19.032
   0.187        -19.032
   0.189        -19.033
   0.192        -19.033
   0.194        -19.034
   0.196        -19.034
   0.198        -19.035
   0.200        -19.035
   0.202        -19.036
   0.205        -19.036
   0.207        -19.037
   0.209        -19.037
   0.211        -19.038
   0.213        -19.038
   0.215        -19.039
   0.218        -19.039
   0.220        -19.040
   0.222        -19.040
   0.224        -19.041
   0.226        -19.041
   0.229        -19.042
   0.231        -19.043
   0.233        -19.043
   0.235        -19.044
   0.237        -19.044
   0.239        -19.045
   0.241        -19.045
   0.244        -19.046
   0.246        -19.047
   0.248        -19.048
   0.250        -19.048
   0.252        -19.049
   0.254        -19.049
   0.257        -19.050
   0.259        -19.051
   0.261        -19.051
   0.263        -19.052
   0.265        -19.053
   0.267        -19.053
   0.270        -19.054
   0.272        -19.055
   0.274        -19.055
   0.276        -19.056
   0.278        -19.057
   0.281        -19.058
   0.283        -19.058
   0.285        -19.059
   0.287        -19.060
   0.289        -19.060
   0.291        -19.061
   0.293        -19.062
   0.296        -19.063
   0.298        -19.063
   0.300        -19.064
   0.302        -19.065
   0.305        -19.066
   0.307        -19.067
   0.309        -19.068
   0.311        -19.069
   0.313        -19.070
   0.315        -19.070
   0.318        -19.071
   0.320        -19.072
   0.322        -19.073
   0.324        -19.074
   0.326        -19.075
   0.328        -19.076
   0.330        -19.077
   0.333        -19.078
   0.335        -19.079
   0.337        -19.080
   0.339        -19.081
   0.341        -19.082
   0.344        -19.083
   0.346        -19.084
   0.348        -19.085
   0.350        -19.086
   0.352        -19.087
   0.354        -19.088
   0.356        -19.089
   0.359        -19.090
   0.361        -19.091
   0.363        -19.092
   0.365        -19.093
   0.367        -19.094
   0.369        -19.095
   0.372        -19.096
   0.374        -19.097
   0.376        -19.098
   0.378        -19.099
   0.380        -19.100
   0.383        -19.101
   0.385        -19.102
   0.387        -19.103
   0.389        -19.104
   0.391        -19.106
   0.393        -19.107
   0.396        -19.108
   0.398        -19.109
   0.400        -19.110
   0.402        -19.112
   0.404        -19.113
   0.406        -19.114
   0.409        -19.116
   0.411        -19.117
   0.413        -19.119
   0.415        -19.120
   0.417        -19.122
   0.420        -19.123
   0.422        -19.125
   0.424        -19.126
   0.426        -19.128
   0.428        -19.130
   0.430        -19.131
   0.432        -19.133
   0.435        -19.135
   0.437        -19.136
   0.439        -19.138
   0.441        -19.140
   0.443        -19.142
   0.446        -19.143
   0.448        -19.145
   0.450        -19.147
   0.452        -19.149
   0.454        -19.151
   0.456        -19.153
   0.459        -19.155
   0.461        -19.157
   0.463        -19.159
   0.465        -19.161
   0.467        -19.163
   0.469        -19.165
   0.472        -19.167
   0.474        -19.169
   0.476        -19.171
   0.478        -19.173
   0.480        -19.175
   0.482        -19.177
   0.485        -19.179
   0.487        -19.180
   0.489        -19.182
   0.491        -19.183
   0.493        -19.183
   0.495        -19.184
   0.498        -19.184
   0.500        -19.184
   0.502        -19.185
   0.504        -19.185
   0.506        -19.186
   0.510        -19.187
   0.512        -19.186
   0.513        -19.186
   0.515        -19.185
   0.517        -19.185
   0.519        -19.184
   0.522        -19.184
   0.524        -19.183
   0.526        -19.183
   0.528        -19.182
   0.530        -19.181
   0.532        -19.181
   0.535        -19.181
   0.537        -19.180
   0.539        -19.180
   0.541        -19.180
   0.543        -19.179
   0.545        -19.179
   0.548        -19.179
   0.550        -19.179
   0.552        -19.178
   0.554        -19.178
   0.556        -19.177
   0.558        -19.177
   0.561        -19.177
   0.563        -19.176
   0.565        -19.176
   0.567        -19.175
   0.569        -19.175
   0.572        -19.175
   0.574        -19.174
   0.576        -19.174
   0.578        -19.173
   0.580        -19.173
   0.582        -19.172
   0.585        -19.172
   0.587        -19.171
   0.589        -19.171
   0.591        -19.170
   0.593        -19.170
   0.595        -19.169
   0.598        -19.168
   0.600        -19.168
   0.602        -19.167
   0.604        -19.167
   0.606        -19.166
   0.608        -19.166
   0.611        -19.165
   0.613        -19.165
   0.615        -19.164
   0.617        -19.164
   0.619        -19.163
   0.621        -19.163
   0.624        -19.162
   0.626        -19.162
   0.628        -19.161
   0.630        -19.161
   0.632        -19.160
   0.634        -19.160
   0.637        -19.160
   0.639        -19.159
   0.641        -19.159
   0.643        -19.159
   0.645        -19.158
   0.647        -19.158
   0.650        -19.158
   0.652        -19.157
   0.654        -19.157
   0.656        -19.157
   0.658        -19.157
   0.660        -19.157
   0.663        -19.158
   0.665        -19.158
   0.667        -19.158
   0.669        -19.158
   0.671        -19.158
   0.673        -19.159
   0.676        -19.159
   0.678        -19.159
   0.680        -19.160
   0.682        -19.160
   0.684        -19.161
   0.687        -19.161
   0.689        -19.162
   0.691        -19.162
   0.693        -19.163
   0.695        -19.163
   0.697        -19.164
   0.700        -19.164
   0.702        -19.165
   0.704        -19.166
   0.706        -19.167
   0.708        -19.167
   0.710        -19.168
   0.713        -19.169
   0.715        -19.170
   0.717        -19.170
   0.719        -19.171
   0.721        -19.172
   0.723        -19.173
   0.726        -19.174
   0.728        -19.175
   0.730        -19.176
   0.732        -19.177
   0.734        -19.178
   0.736        -19.179
   0.739        -19.180
   0.741        -19.181
   0.743        -19.182
   0.745        -19.183
   0.747        -19.184
   0.750        -19.185
   0.752        -19.186
   0.754        -19.188
   0.756        -19.189
   0.758        -19.190
   0.760        -19.191
   0.762        -19.192
   0.765        -19.193
   0.767        -19.195
   0.769        -19.196
   0.771        -19.197
   0.773        -19.198
   0.776        -19.199
   0.778        -19.200
   0.780        -19.202
   0.782        -19.203
   0.784        -19.205
   0.786        -19.206
   0.789        -19.208
   0.791        -19.210
   0.793        -19.211
   0.795        -19.213
   0.797        -19.214
   0.799        -19.216
   0.802        -19.218
   0.804        -19.220
   0.806        -19.222
   0.808        -19.223
   0.810        -19.226
   0.812        -19.227
   0.815        -19.229
   0.817        -19.231
   0.819        -19.233
   0.821        -19.235
   0.823        -19.237
   0.825        -19.240
   0.828        -19.242
   0.830        -19.244
   0.832        -19.246
   0.834        -19.248
   0.836        -19.251
   0.838        -19.253
   0.841        -19.255
   0.843        -19.257
   0.845        -19.260
   0.847        -19.262
   0.849        -19.265
   0.852        -19.267
   0.854        -19.270
   0.856        -19.272
   0.858        -19.275
   0.860        -19.277
   0.862        -19.280
   0.865        -19.282
   0.867        -19.285
   0.869        -19.287
   0.871        -19.290
   0.873        -19.293
   0.875        -19.295
   0.878        -19.298
   0.880        -19.301
   0.882        -19.303
   0.884        -19.306
   0.886        -19.309
   0.888        -19.312
   0.891        -19.315
   0.893        -19.319
   0.895        -19.322
   0.897        -19.325
   0.899        -19.328
   0.901        -19.331
   0.904        -19.335
   0.906        -19.338
   0.908        -19.342
   0.910        -19.346
   0.912        -19.350
   0.915        -19.354
   0.917        -19.358
   0.919        -19.362
   0.921        -19.365
   0.923        -19.370
   0.925        -19.373
   0.928        -19.378
   0.930        -19.383
   0.932        -19.388
   0.934        -19.392
   0.936        -19.397
   0.938        -19.402
   0.941        -19.407
   0.943        -19.411
   0.945        -19.416
   0.947        -19.421
   0.949        -19.427
   0.951        -19.434
   0.954        -19.440
   0.956        -19.447
   0.958        -19.454
   0.960        -19.460
   0.962        -19.467
   0.964        -19.473
   0.967        -19.480
   0.969        -19.486
   0.971        -19.491
   0.973        -19.496
   0.975        -19.501
   0.977        -19.506
   0.980        -19.511
   0.982        -19.516
   0.984        -19.521
   0.986        -19.526
   0.988        -19.535
   0.990        -19.545
   0.993        -19.551
   0.995        -19.557
   0.997        -19.563
   0.999        -19.568
   1.001        -19.574
   1.004        -19.580
   1.006        -19.586
   1.008        -19.592
   1.010        -19.599
   1.012        -19.610
   1.014        -19.622
   1.017        -19.633
   1.019        -19.644
   1.021        -19.656
   1.023        -19.667
   1.025        -19.679
   1.027        -19.690
   1.030        -19.702
   1.032        -19.716
   1.034        -19.733
   1.036        -19.749
   1.038        -19.766
   1.040        -19.783
   1.043        -19.799
   1.045        -19.816
   1.047        -19.832
   1.049        -19.849
   1.051        -19.867
   1.053        -19.893
   1.056        -19.920
   1.058        -19.946
   1.060        -19.973
   1.062        -20.000
   1.064        -20.027
   1.066        -20.054
   1.069        -20.080
   1.071        -20.107
   1.073        -20.150
   1.075        -20.208
   1.077        -20.266
   1.079        -20.324
   1.082        -20.382
   1.084        -20.439
   1.086        -20.498
   1.088        -20.555
   1.090        -20.613
   1.093        -20.672
   1.095        -20.738
   1.097        -20.807
   1.099        -20.875
   1.101        -20.944
   1.103        -21.012
   1.106        -21.080
   1.108        -21.149
   1.110        -21.217
   1.112        -21.295
   1.114        -21.336
   1.117        -21.339
   1.119        -21.342
   1.121        -21.346
   1.123        -21.349
   1.125        -21.352
   1.127        -21.355
   1.129        -21.359
   1.131        -21.362
   1.134        -21.365
   1.136        -21.368
   1.138        -21.371
   1.140        -21.374
   1.143        -21.377
   1.145        -21.380
   1.147        -21.383
   1.149        -21.386
   1.151        -21.389
   1.153        -21.392
   1.155        -21.394
   1.158        -21.397
   1.160        -21.399
   1.162        -21.402
   1.164        -21.405
   1.166        -21.407
   1.169        -21.410
   1.171        -21.413
   1.173        -21.415
   1.175        -21.418
   1.177        -21.421
   1.180        -21.423
   1.181        -21.426
   1.184        -21.428
   1.186        -21.431
   1.188        -21.434
   1.190        -21.437
   1.192        -21.439
   1.195        -21.442
   1.197        -21.444
   1.199        -21.447
   1.201        -21.449
   1.203        -21.452
   1.205        -21.455
   1.208        -21.457
   1.210        -21.460
   1.212        -21.462
   1.214        -21.465
   1.216        -21.468
   1.218        -21.470
   1.220        -21.472
   1.223        -21.475
   1.225        -21.477
   1.227        -21.480
   1.229        -21.482
   1.232        -21.485
   1.234        -21.487
   1.236        -21.490
   1.238        -21.492
   1.240        -21.494
   1.242        -21.497
   1.245        -21.499
   1.247        -21.501
   1.249        -21.503
   1.251        -21.506
   1.253        -21.508
   1.255        -21.510
   1.258        -21.512
   1.260        -21.515
   1.262        -21.517
   1.264        -21.520
   1.266        -21.522
   1.268        -21.525
   1.270        -21.527
   1.273        -21.530
   1.275        -21.533
   1.277        -21.535
   1.279        -21.538
   1.281        -21.540
   1.284        -21.543
   1.286        -21.546
   1.288        -21.549
   1.290        -21.552
   1.292        -21.555
   1.294        -21.557
   1.297        -21.560
   1.299        -21.563
   1.301        -21.566
   1.303        -21.569
   1.305        -21.573
   1.307        -21.576
   1.310        -21.579
   1.312        -21.582
   1.314        -21.586
   1.316        -21.589
   1.318        -21.592
   1.320        -21.595
   1.323        -21.599
   1.325        -21.602
   1.327        -21.606
   1.329        -21.609
   1.331        -21.613
   1.334        -21.616
   1.336        -21.620
   1.338        -21.624
   1.340        -21.627
   1.342        -21.631
   1.344        -21.635
   1.346        -21.639
   1.349        -21.643
   1.351        -21.647
   1.353        -21.651
   1.355        -21.655
   1.357        -21.659
   1.359        -21.663
   1.362        -21.667
   1.364        -21.671
   1.366        -21.675
   1.368        -21.679
   1.370        -21.682
   1.373        -21.686
   1.375        -21.690
   1.377        -21.693
   1.379        -21.697
   1.381        -21.701
   1.383        -21.704
   1.386        -21.707
   1.388        -21.709
   1.390        -21.712
   1.392        -21.714
   1.394        -21.716
   1.397        -21.719
   1.399        -21.721
   1.401        -21.724
   1.403        -21.726
   1.405        -21.729
   1.407        -21.732
   1.410        -21.734
   1.412        -21.737
   1.414        -21.740
   1.416        -21.742
   1.418        -21.745
   1.420        -21.748
   1.423        -21.750
   1.425        -21.753
   1.427        -21.756
   1.429        -21.758
   1.431        -21.761
   1.433        -21.764
   1.436        -21.766
   1.438        -21.769
   1.440        -21.771
   1.442        -21.774
   1.444        -21.776
   1.446        -21.779
   1.449        -21.781
   1.451        -21.784
   1.453        -21.786
   1.455        -21.789
   1.457        -21.791
   1.460        -21.793
   1.462        -21.796
   1.464        -21.798
   1.466        -21.800
   1.468        -21.802
   1.470        -21.803
   1.472        -21.805
   1.475        -21.807
   1.477        -21.808
   1.479        -21.810
   1.481        -21.812
   1.483        -21.813
   1.486        -21.815
   1.488        -21.816
   1.490        -21.817
   1.492        -21.817
   1.494        -21.818
   1.496        -21.819
   1.498        -21.819
   1.501        -21.820
   1.503        -21.821
   1.505        -21.821
   1.507        -21.822
   1.509        -21.821
   1.512        -21.821
   1.514        -21.820
   1.516        -21.820
   1.518        -21.819
   1.520        -21.818
   1.522        -21.817
   1.525        -21.817
   1.527        -21.817
   1.529        -21.815
   1.531        -21.813
   1.533        -21.812
   1.535        -21.810
   1.538        -21.807
   1.540        -21.806
   1.542        -21.804
   1.544        -21.802
   1.546        -21.800
   1.549        -21.798
   1.551        -21.795
   1.553        -21.792
   1.555        -21.790
   1.557        -21.787
   1.559        -21.784
   1.561        -21.781
   1.564        -21.778
   1.566        -21.776
   1.568        -21.773
   1.570        -21.770
   1.572        -21.766
   1.575        -21.763
   1.577        -21.759
   1.579        -21.755
   1.581        -21.751
   1.583        -21.748
   1.585        -21.744
   1.588        -21.740
   1.590        -21.834
   1.592        -22.060
   1.594        -22.065
   1.596        -22.070
   1.598        -22.075
   1.601        -22.081
   1.603        -22.086
   1.605        -22.091
   1.607        -22.096
   1.609        -22.102
   1.611        -22.107
   1.614        -22.113
   1.616        -22.120
   1.618        -22.127
   1.620        -22.133
   1.622        -22.140
   1.624        -22.147
   1.627        -22.153
   1.629        -22.160
   1.631        -22.166
   1.633        -22.173
   1.635        -22.182
   1.637        -22.190
   1.640        -22.198
   1.642        -22.206
   1.644        -22.214
   1.646        -22.223
   1.648        -22.231
   1.651        -22.239
   1.653        -22.247
   1.655        -22.257
   1.657        -22.267
   1.659        -22.278
   1.661        -22.288
   1.664        -22.299
   1.666        -22.309
   1.668        -22.320
   1.670        -22.330
   1.672        -22.341
   1.674        -22.352
   1.676        -22.366
   1.679        -22.381
   1.681        -22.395
   1.683        -22.410
   1.685        -22.425
   1.687        -22.439
   1.690        -22.454
   1.692        -22.469
   1.694        -22.483
   1.696        -22.504
   1.699        -22.533
   1.701        -22.559
   1.703        -22.582
   1.705        -22.606
   1.707        -22.631
   1.709        -22.657
   1.711        -22.682
   1.714        -22.710
   1.716        -22.722
   1.718        -22.750
   1.720        -22.778
   1.722        -22.811
   1.724        -22.845
   1.727        -22.878
   1.729        -22.912
   1.731        -22.946
   1.733        -22.979
   1.735        -23.013
   1.737        -23.042
   1.739        -23.063
   1.742        -23.085
   1.744        -23.107
   1.746        -23.129
   1.748        -23.150
   1.750        -23.172
   1.753        -23.193
   1.755        -23.215
   1.757        -23.236
   1.759        -23.249
   1.761        -23.259
   1.763        -23.269
   1.766        -23.279
   1.768        -23.289
   1.770        -23.299
   1.772        -23.309
   1.774        -23.320
   1.776        -23.330
   1.779        -23.338
   1.781        -23.342
   1.783        -23.346
   1.785        -23.350
   1.787        -23.353
   1.789        -23.357
   1.792        -23.361
   1.794        -23.365
   1.796        -23.369
   1.798        -23.373
   1.800        -23.375
   1.802        -23.377
   1.805        -23.378
   1.807        -23.380
   1.809        -23.381
   1.811        -23.383
   1.813        -23.384
   1.816        -23.386
   1.818        -23.387
   1.820        -23.389
   1.822        -23.390
   1.824        -23.391
   1.826        -23.391
   1.829        -23.392
   1.831        -23.393
   1.833        -23.394
   1.835        -23.395
   1.837        -23.396
   1.839        -23.397
   1.842        -23.398
   1.844        -23.398
   1.846        -23.399
   1.848        -23.400
   1.850        -23.401
   1.852        -23.401
   1.855        -23.402
   1.857        -23.403
   1.859        -23.404
   1.861        -23.404
   1.863        -23.405
   1.865        -23.406
   1.868        -23.407
   1.870        -23.407
   1.872        -23.408
   1.874        -23.409
   1.876        -23.409
   1.878        -23.410
   1.881        -23.411
   1.883        -23.412
   1.885        -23.412
   1.887        -23.413
   1.889        -23.414
   1.891        -23.415
   1.894        -23.416
   1.896        -23.416
   1.898        -23.417
   1.900        -23.418
   1.902        -23.419
   1.905        -23.420
   1.907        -23.421
   1.909        -23.421
   1.911        -23.422
   1.913        -23.423
   1.915        -23.424
   1.918        -23.425
   1.920        -23.426
   1.922        -23.427
   1.924        -23.428
   1.926        -23.429
   1.928        -23.430
   1.931        -23.431
   1.933        -23.432
   1.935        -23.432
   1.937        -23.433
   1.939        -23.434
   1.941        -23.435
   1.944        -23.436
   1.946        -23.437
   1.948        -23.438
   1.950        -23.439
   1.952        -23.441
   1.954        -23.442
   1.957        -23.443
   1.959        -23.444
   1.961        -23.445
   1.963        -23.446
   1.965        -23.447
   1.967        -23.448
   1.970        -23.449
   1.972        -23.451
   1.974        -23.451
   1.976        -23.453
   1.978        -23.454
   1.980        -23.455
   1.983        -23.456
   1.985        -23.457
   1.987        -23.458
   1.989        -23.460
   1.991        -23.461
   1.993        -23.462
   1.996        -23.463
   1.998        -23.465
   2.000        -23.466
   2.002        -23.467
   2.004        -23.469
   2.007        -23.470
   2.009        -23.471
   2.011        -23.472
   2.013        -23.474
   2.015        -23.475
   2.017        -23.477
   2.020        -23.478
   2.022        -23.479
   2.024        -23.481
   2.026        -23.482
   2.028        -23.484
   2.030        -23.485
   2.033        -23.486
   2.035        -23.488
   2.037        -23.489
   2.039        -23.491
   2.041        -23.492
   2.043        -23.494
   2.046        -23.495
   2.048        -23.496
   2.050        -23.498
   2.052        -23.499
   2.054        -23.501
   2.056        -23.502
   2.059        -23.504
   2.061        -23.505
   2.063        -23.507
   2.065        -23.508
   2.067        -23.510
   2.069        -23.511
   2.072        -23.513
   2.074        -23.514
   2.076        -23.516
   2.078        -23.517
   2.080        -23.519
   2.083        -23.521
   2.085        -23.522
   2.087        -23.524
   2.089        -23.526
   2.091        -23.527
   2.093        -23.529
   2.096        -23.531
   2.098        -23.532
   2.100        -23.534
   2.102        -23.535
   2.104        -23.537
   2.106        -23.539
   2.109        -23.540
   2.111        -23.542
   2.113        -23.543
   2.115        -23.545
   2.117        -23.547
   2.120        -23.548
   2.122        -23.550
   2.124        -23.551
   2.126        -23.552
   2.128        -23.554
   2.130        -23.556
   2.133        -23.557
   2.135        -23.559
   2.137        -23.560
   2.139        -23.562
   2.141        -23.564
   2.143        -23.565
   2.145        -23.567
   2.148        -23.568
   2.150        -23.569
   2.152        -23.571
   2.154        -23.573
   2.157        -23.574
   2.158        -23.576
   2.161        -23.578
   2.163        -23.579
   2.165        -23.580
   2.167        -23.582
   2.169        -23.583
   2.172        -23.585
   2.174        -23.587
   2.176        -23.588
   2.178        -23.589
   2.180        -23.591
   2.183        -23.592
   2.185        -23.594
   2.187        -23.595
   2.189        -23.596
   2.191        -23.598
   2.193        -23.600
   2.195        -23.601
   2.197        -23.602
   2.200        -23.603
   2.202        -23.605
   2.204        -23.607
   2.206        -23.608
   2.208        -23.609
   2.211        -23.610
   2.213        -23.612
   2.215        -23.613
   2.217        -23.614
   2.219        -23.616
   2.221        -23.617
   2.224        -23.618
   2.226        -23.620
   2.228        -23.621
   2.230        -23.622
   2.232        -23.624
   2.235        -23.625
   2.237        -23.626
   2.239        -23.627
   2.241        -23.629
   2.243        -23.630
   2.245        -23.631
   2.247        -23.632
   2.250        -23.633
   2.252        -23.635
   2.254        -23.636
   2.256        -23.637
   2.259        -23.638
   2.261        -23.639
   2.263        -23.640
   2.265        -23.641
   2.267        -23.642
   2.269        -23.643
   2.271        -23.644
   2.274        -23.645
   2.276        -23.646
   2.278        -23.647
   2.280        -23.648
   2.282        -23.649
   2.284        -23.650
   2.287        -23.651
   2.289        -23.652
   2.291        -23.653
   2.293        -23.654
   2.295        -23.655
   2.297        -23.656
   2.299        -23.656
   2.302        -23.657
   2.304        -23.658
   2.306        -23.659
   2.308        -23.660
   2.310        -23.660
   2.313        -23.661
   2.315        -23.662
   2.317        -23.663
   2.319        -23.664
   2.321        -23.664
   2.323        -23.665
   2.326        -23.666
   2.328        -23.666
   2.330        -23.667
   2.332        -23.668
   2.334        -23.668
   2.337        -23.669
   2.339        -23.669
   2.341        -23.670
   2.343        -23.670
   2.345        -23.671
   2.347        -23.672
   2.349        -23.672
   2.352        -23.673
   2.354        -23.673
   2.356        -23.674
   2.358        -23.674
   2.360        -23.675
   2.363        -23.675
   2.365        -23.676
   2.367        -23.677
   2.369        -23.677
   2.371        -23.678
   2.374        -23.678
   2.376        -23.679
   2.378        -23.679
   2.380        -23.680
   2.382        -23.680
   2.384        -23.681
   2.386        -23.682
   2.389        -23.682
   2.391        -23.683
   2.393        -23.684
   2.395        -23.684
   2.397        -23.685
   2.400        -23.686
   2.402        -23.686
   2.404        -23.687
   2.406        -23.688
   2.408        -23.690
   2.410        -23.691
   2.413        -23.692
   2.415        -23.693
   2.417        -23.694
   2.419        -23.696
   2.421        -23.697
   2.423        -23.698
   2.425        -23.699
   2.428        -23.700
   2.430        -23.701
   2.432        -23.701
   2.434        -23.702
   2.436        -23.703
   2.439        -23.704
   2.441        -23.705
   2.443        -23.706
   2.445        -23.706
   2.447        -23.707
   2.449        -23.707
   2.452        -23.707
   2.454        -23.707
   2.456        -23.707
   2.458        -23.707
   2.460        -23.707
   2.462        -23.708
   2.465        -23.708
   2.467        -23.708
   2.469        -23.708
   2.471        -23.708
   2.473        -23.708
   2.475        -23.708
   2.478        -23.708
   2.480        -23.708
   2.482        -23.708
   2.484        -23.708
   2.486        -23.708
   2.489        -23.708
   2.491        -23.708
   2.493        -23.708
   2.495        -23.708
   2.497        -23.708
   2.499        -23.708
   2.502        -23.708
   2.504        -23.708
   2.506        -23.708
   2.508        -23.708
   2.510        -23.708
   2.512        -23.708
   2.514        -23.708
   2.517        -23.708
   2.519        -23.708
   2.521        -23.708
   2.523        -23.708
   2.525        -23.709
   2.528        -23.709
   2.530        -23.709
   2.532        -23.709
   2.534        -23.709
   2.536        -23.709
   2.538        -23.709
   2.541        -23.709
   2.543        -23.709
   2.545        -23.710
   2.547        -23.710
   2.549        -23.710
   2.552        -23.711
   2.554        -23.711
   2.556        -23.711
   2.558        -23.711
   2.560        -23.712
   2.562        -23.712
   2.565        -23.713
   2.567        -23.713
   2.569        -23.713
   2.571        -23.714
   2.573        -23.714
   2.575        -23.715
   2.578        -23.716
   2.580        -23.716
   2.582        -23.717
   2.584        -23.718
   2.586        -23.718
   2.588        -23.719
   2.590        -23.720
   2.593        -23.721
   2.595        -23.722
   2.597        -23.723
   2.599        -23.724
   2.601        -23.725
   2.604        -23.726
   2.606        -23.727
   2.608        -23.729
   2.610        -23.730
   2.612        -23.731
   2.614        -23.733
   2.617        -23.735
   2.619        -23.737
   2.621        -23.739
   2.623        -23.741
   2.625        -23.743
   2.627        -23.745
   2.630        -23.747
   2.632        -23.749
   2.634        -23.751
   2.636        -23.755
   2.638        -23.758
   2.641        -23.761
   2.643        -23.764
   2.645        -23.767
   2.647        -23.771
   2.649        -23.774
   2.651        -23.777
   2.654        -23.781
   2.656        -23.786
   2.658        -23.791
   2.660        -23.796
   2.662        -23.801
   2.664        -23.806
   2.666        -23.810
   2.669        -23.815
   2.671        -23.820
   2.673        -23.825
   2.675        -23.831
   2.677        -23.838
   2.680        -23.845
   2.682        -23.852
   2.684        -23.858
   2.686        -23.865
   2.688        -23.871
   2.690        -23.878
   2.693        -23.885
   2.695        -23.891
   2.697        -23.898
   2.699        -23.904
   2.701        -23.911
   2.703        -23.918
   2.706        -23.924
   2.708        -23.931
   2.710        -23.937
   2.712        -23.944
   2.714        -23.950
   2.716        -23.956
   2.719        -23.962
   2.721        -23.967
   2.723        -23.973
   2.725        -23.979
   2.727        -23.984
   2.729        -23.990
   2.732        -23.996
   2.734        -24.001
   2.736        -24.007
   2.738        -24.012
   2.740        -24.017
   2.743        -24.022
   2.745        -24.027
   2.747        -24.032
   2.749        -24.037
   2.751        -24.042
   2.753        -24.047
   2.756        -24.052
   2.758        -24.057
   2.760        -24.061
   2.762        -24.065
   2.764        -24.070
   2.766        -24.075
   2.769        -24.079
   2.771        -24.084
   2.773        -24.089
   2.775        -24.093
   2.777        -24.098
   2.779        -24.102
   2.782        -24.106
   2.784        -24.110
   2.786        -24.114
   2.788        -24.118
   2.790        -24.122
   2.792        -24.127
   2.795        -24.131
   2.797        -24.135
   2.799        -24.139
   2.801        -24.142
   2.803        -24.146
   2.805        -24.150
   2.808        -24.154
   2.810        -24.157
   2.812        -24.161
   2.814        -24.165
   2.816        -24.168
   2.819        -24.172
   2.821        -24.176
   2.823        -24.179
   2.825        -24.182
   2.827        -24.186
   2.829        -24.189
   2.832        -24.192
   2.834        -24.195
   2.836        -24.199
   2.838        -24.202
   2.840        -24.206
   2.842        -24.208
   2.845        -24.211
   2.847        -24.214
   2.849        -24.217
   2.851        -24.220
   2.853        -24.223
   2.855        -24.226
   2.858        -24.229
   2.860        -24.231
   2.862        -24.234
   2.864        -24.236
   2.866        -24.239
   2.868        -24.242
   2.871        -24.244
   2.873        -24.247
   2.875        -24.249
   2.877        -24.252
   2.879        -24.254
   2.881        -24.257
   2.884        -24.259
   2.886        -24.261
   2.888        -24.263
   2.890        -24.266
   2.892        -24.268
   2.894        -24.270
   2.897        -24.273
   2.899        -24.275
   2.901        -24.277
   2.903        -24.279
   2.905        -24.281
   2.908        -24.283
   2.910        -24.285
   2.912        -24.287
   2.914        -24.289
   2.916        -24.291
   2.918        -24.293
   2.921        -24.295
   2.923        -24.296
   2.925        -24.298
   2.927        -24.300
   2.929        -24.301
   2.931        -24.303
   2.934        -24.304
   2.936        -24.306
   2.938        -24.308
   2.940        -24.309
   2.942        -24.311
   2.944        -24.312
   2.947        -24.314
   2.949        -24.315
   2.951        -24.316
   2.953        -24.318
   2.955        -24.319
   2.957        -24.321
   2.960        -24.322
   2.962        -24.323
   2.964        -24.324
   2.966        -24.326
   2.968        -24.327
   2.970        -24.328
   2.973        -24.330
   2.975        -24.331
   2.977        -24.332
   2.979        -24.333
   2.981        -24.335
   2.984        -24.336
   2.986        -24.337
   2.988        -24.338
   2.990        -24.339
   2.992        -24.341
   2.994        -24.342
   2.997        -24.343
   2.999        -24.344
   3.001        -24.345
   3.003        -24.346
   3.005        -24.348
   3.007        -24.349
   3.010        -24.350
   3.012        -24.351
   3.014        -24.352
   3.016        -24.353
   3.018        -24.354
   3.020        -24.355
   3.023        -24.356
   3.025        -24.358
   3.027        -24.359
   3.029        -24.360
   3.031        -24.361
   3.033        -24.362
   3.036        -24.363
   3.038        -24.364
   3.040        -24.365
   3.042        -24.366
   3.044        -24.367
   3.046        -24.368
   3.049        -24.369
   3.051        -24.370
   3.053        -24.372
   3.055        -24.373
   3.057        -24.374
   3.060        -24.375
   3.062        -24.376
   3.064        -24.377
   3.066        -24.378
   3.068        -24.379
   3.070        -24.380
   3.073        -24.381
   3.075        -24.382
   3.077        -24.383
   3.079        -24.384
   3.081        -24.385
   3.083        -24.386
   3.086        -24.388
   3.088        -24.389
   3.090        -24.390
   3.092        -24.391
   3.094        -24.391
   3.096        -24.392
   3.099        -24.393
   3.101        -24.394
   3.103        -24.396
   3.105        -24.396
   3.107        -24.397
   3.109        -24.398
   3.112        -24.399
   3.114        -24.400
   3.116        -24.401
   3.118        -24.402
   3.120        -24.403
   3.123        -24.404
   3.125        -24.405
   3.127        -24.406
   3.129        -24.407
   3.131        -24.408
   3.133        -24.409
   3.136        -24.410
   3.138        -24.411
   3.140        -24.411
   3.142        -24.413
   3.144        -24.414
   3.146        -24.414
   3.149        -24.415
   3.151        -24.416
   3.153        -24.417
   3.155        -24.418
   3.157        -24.419
   3.159        -24.420
   3.162        -24.421
   3.164        -24.422
   3.166        -24.423
   3.168        -24.424
   3.170        -24.424
   3.172        -24.425
   3.175        -24.426
   3.177        -24.427
   3.179        -24.428
   3.181        -24.429
   3.183        -24.430
   3.185        -24.431
   3.188        -24.432
   3.190        -24.433
   3.192        -24.434
   3.194        -24.435
   3.196        -24.435
   3.199        -24.436
   3.201        -24.437
   3.203        -24.438
   3.205        -24.439
   3.207        -24.440
   3.209        -24.441
   3.212        -24.442
   3.214        -24.443
   3.216        -24.444
   3.218        -24.445
   3.220        -24.446
   3.222        -24.446
   3.225        -24.447
   3.227        -24.448
   3.229        -24.449
   3.231        -24.450
   3.233        -24.451
   3.236        -24.452
   3.237        -24.453
   3.240        -24.454
   3.242        -24.455
   3.244        -24.455
   3.246        -24.456
   3.248        -24.457
   3.251        -24.458
   3.253        -24.459
   3.255        -24.459
   3.257        -24.460
   3.259        -24.461
   3.261        -24.462
   3.263        -24.462
   3.266        -24.463
   3.268        -24.464
   3.270        -24.465
   3.272        -24.466
   3.274        -24.466
   3.277        -24.467
   3.279        -24.468
   3.281        -24.469
   3.283        -24.469
   3.285        -24.470
   3.287        -24.471
   3.290        -24.472
   3.292        -24.472
   3.294        -24.473
   3.296        -24.474
   3.298        -24.475
   3.301        -24.476
   3.303        -24.477
   3.305        -24.478
   3.307        -24.479
   3.309        -24.481
   3.311        -24.481
   3.313        -24.483
   3.316        -24.484
   3.318        -24.485
   3.320        -24.486
   3.322        -24.488
   3.324        -24.489
   3.327        -24.490
   3.329        -24.491
   3.331        -24.492
   3.333        -24.493
   3.335        -24.495
   3.337        -24.496
   3.340        -24.497
   3.342        -24.498
   3.344        -24.499
   3.346        -24.501
   3.348        -24.501
   3.350        -24.503
   3.352        -24.504
   3.355        -24.505
   3.357        -24.506
   3.359        -24.507
   3.361        -24.508
   3.363        -24.509
   3.366        -24.511
   3.368        -24.512
   3.370        -24.513
   3.372        -24.514
   3.374        -24.515
   3.376        -24.516
   3.379        -24.517
   3.381        -24.519
   3.383        -24.519
   3.385        -24.521
   3.387        -24.522
   3.389        -24.523
   3.392        -24.524
   3.394        -24.525
   3.396        -24.526
   3.398        -24.527
   3.400        -24.528
   3.402        -24.529
   3.405        -24.530
   3.407        -24.531
   3.409        -24.532
   3.411        -24.533
   3.413        -24.534
   3.416        -24.535
   3.418        -24.536
   3.420        -24.537
   3.422        -24.539
   3.424        -24.539
   3.426        -24.540
   3.429        -24.542
   3.431        -24.543
   3.433        -24.544
   3.435        -24.545
   3.437        -24.546
   3.439        -24.547
   3.442        -24.548
   3.444        -24.549
   3.446        -24.550
   3.448        -24.551
   3.450        -24.552
   3.452        -24.553
   3.455        -24.554
   3.457        -24.555
   3.459        -24.556
   3.461        -24.557
   3.463        -24.558
   3.466        -24.559
   3.468        -24.560
   3.470        -24.561
   3.472        -24.562
   3.474        -24.563
   3.476        -24.564
   3.478        -24.565
   3.481        -24.566
   3.483        -24.567
   3.485        -24.568
   3.487        -24.569
   3.489        -24.570
   3.492        -24.571
   3.494        -24.572
   3.496        -24.573
   3.498        -24.574
   3.500        -24.575
   3.502        -24.576
   3.505        -24.577
   3.507        -24.578
   3.509        -24.578
   3.511        -24.579
   3.513        -24.580
   3.515        -24.581
   3.518        -24.582
   3.520        -24.583
   3.522        -24.584
   3.524        -24.585
   3.526        -24.586
   3.528        -24.587
   3.531        -24.588
   3.533        -24.589
   3.535        -24.589
   3.537        -24.591
   3.539        -24.591
   3.541        -24.592
   3.544        -24.593
   3.546        -24.594
   3.548        -24.595
   3.550        -24.596
   3.552        -24.597
   3.555        -24.598
   3.557        -24.599
   3.559        -24.599
   3.561        -24.600
   3.563        -24.601
   3.565        -24.602
   3.568        -24.603
   3.570        -24.604
   3.572        -24.605
   3.574        -24.606
   3.576        -24.606
   3.578        -24.607
   3.581        -24.608
   3.583        -24.609
   3.585        -24.610
   3.587        -24.611
   3.589        -24.612
   3.591        -24.612
   3.594        -24.613
   3.596        -24.614
   3.598        -24.615
   3.600        -24.616
   3.602        -24.616
   3.604        -24.617
   3.607        -24.618
   3.609        -24.619
   3.611        -24.620
   3.613        -24.621
   3.615        -24.621
   3.617        -24.622
   3.620        -24.623
   3.622        -24.624
   3.624        -24.625
   3.626        -24.625
   3.628        -24.626
   3.630        -24.627
   3.633        -24.628
   3.635        -24.629
   3.637        -24.630
   3.639        -24.631
   3.641        -24.631
   3.644        -24.632
   3.646        -24.633
   3.648        -24.634
   3.650        -24.635
   3.652        -24.636
   3.654        -24.637
   3.657        -24.638
   3.659        -24.639
   3.661        -24.640
   3.663        -24.641
   3.665        -24.642
   3.667        -24.643
   3.670        -24.644
   3.672        -24.645
   3.674        -24.646
   3.676        -24.647
   3.678        -24.648
   3.680        -24.649
   3.683        -24.650
   3.685        -24.652
   3.687        -24.653
   3.689        -24.654
   3.691        -24.655
   3.693        -24.656
   3.696        -24.657
   3.698        -24.658
   3.700        -24.659
   3.702        -24.661
   3.704        -24.662
   3.706        -24.663
   3.709        -24.664
   3.711        -24.665
   3.713        -24.666
   3.715        -24.667
   3.717        -24.669
   3.719        -24.670
   3.722        -24.671
   3.724        -24.672
   3.726        -24.674
   3.728        -24.675
   3.730        -24.676
   3.733        -24.677
   3.735        -24.679
   3.737        -24.680
   3.739        -24.681
   3.741        -24.683
   3.743        -24.684
   3.746        -24.685
   3.748        -24.687
   3.750        -24.688
   3.752        -24.689
   3.754        -24.691
   3.756        -24.692
   3.759        -24.693
   3.761        -24.695
   3.763        -24.696
   3.765        -24.698
   3.767        -24.699
   3.769        -24.701
   3.772        -24.702
   3.774        -24.703
   3.776        -24.705
   3.778        -24.706
   3.780        -24.708
   3.782        -24.709
   3.785        -24.711
   3.787        -24.713
   3.789        -24.714
   3.791        -24.716
   3.793        -24.717
   3.795        -24.719
   3.798        -24.720
   3.800        -24.722
   3.802        -24.724
   3.804        -24.725
   3.806        -24.727
   3.809        -24.729
   3.811        -24.730
   3.813        -24.732
   3.815        -24.734
   3.817        -24.736
   3.819        -24.737
   3.822        -24.739
   3.824        -24.740
   3.826        -24.742
   3.828        -24.744
   3.830        -24.745
   3.832        -24.747
   3.835        -24.748
   3.837        -24.750
   3.839        -24.752
   3.841        -24.753
   3.843        -24.754
   3.845        -24.755
   3.848        -24.756
   3.850        -24.758
   3.852        -24.759
   3.854        -24.760
   3.856        -24.761
   3.858        -24.762
   3.861        -24.763
   3.863        -24.764
   3.865        -24.765
   3.867        -24.765
   3.869        -24.766
   3.871        -24.767
   3.874        -24.767
   3.876        -24.768
   3.878        -24.769
   3.880        -24.769
   3.882        -24.770
   3.885        -24.771
   3.887        -24.772
   3.889        -24.773
   3.891        -24.773
   3.899        -24.776
   3.912        -24.780
   3.925        -24.784
   3.938        -24.788
   3.951        -24.792
   3.964        -24.796
   3.977        -24.800
   3.990        -24.804
   4.003        -24.808
   4.016        -24.812
   4.029        -24.816
   4.042        -24.819
   4.055        -24.823
   4.068        -24.827
   4.081        -24.830
   4.094        -24.834
   4.107        -24.837
   4.120        -24.841
   4.133        -24.844
   4.146        -24.848
   4.159        -24.851
   4.172        -24.854
   4.185        -24.858
   4.198        -24.862
   4.211        -24.866
   4.224        -24.870
   4.237        -24.875
   4.250        -24.880
   4.263        -24.885
   4.276        -24.891
   4.289        -24.898
   4.302        -24.905
   4.315        -24.912
   4.328        -24.920
   4.341        -24.928
   4.354        -24.937
   4.367        -24.946
   4.380        -24.956
   4.393        -24.965
   4.406        -24.976
   4.420        -24.987
   4.432        -24.998
   4.445        -25.009
   4.459        -25.021
   4.471        -25.033
   4.484        -25.045
   4.498        -25.058
   4.510        -25.070
   4.524        -25.083
   4.537        -25.097
   4.550        -25.110
   4.563        -25.124
   4.576        -25.137
   4.589        -25.151
   4.602        -25.166
   4.615        -25.180
   4.628        -25.194
   4.641        -25.209
   4.654        -25.224
   4.667        -25.239
   4.680        -25.254
   4.693        -25.269
   4.706        -25.284
   4.719        -25.300
   4.732        -25.316
   4.745        -25.331
   4.758        -25.348
   4.771        -25.364
   4.784        -25.380
   4.797        -25.396
   4.810        -25.413
   4.823        -25.429
   4.836        -25.446
   4.849        -25.463
   4.862        -25.480
   4.875        -25.497
   4.888        -25.515
   4.901        -25.532
   4.914        -25.550
   4.927        -25.568
   4.940        -25.586
   4.953        -25.604
   4.966        -25.623
   4.979        -25.641
   4.992        -25.660
   5.005        -25.678
   5.018        -25.697
   5.031        -25.716
   5.044        -25.735
   5.057        -25.755
   5.070        -25.774
   5.083        -25.794
   5.096        -25.813
   5.109        -25.833
   5.123        -25.853
   5.136        -25.873
   5.149        -25.893
   5.162        -25.913
   5.175        -25.933
   5.188        -25.953
   5.201        -25.973
   5.214        -25.993
   5.227        -26.014
   5.240        -26.034
   5.253        -26.054
   5.266        -26.075
   5.279        -26.095
   5.292        -26.116
   5.305        -26.136
   5.318        -26.157
   5.331        -26.178
   5.344        -26.199
   5.357        -26.220
   5.370        -26.241
   5.383        -26.263
   5.396        -26.284
   5.409        -26.306
   5.422        -26.329
   5.435        -26.351
   5.448        -26.373
   5.461        -26.396
   5.474        -26.419
   5.487        -26.442
   5.500        -26.466
   5.513        -26.490
   5.526        -26.514
   5.539        -26.539
   5.552        -26.563
   5.565        -26.589
   5.578        -26.614
   5.591        -26.640
   5.604        -26.666
   5.617        -26.693
   5.630        -26.720
   5.643        -26.747
   5.656        -26.775
   5.669        -26.803
   5.682        -26.832
   5.695        -26.861
   5.708        -26.890
   5.721        -26.920
   5.734        -26.951
   5.748        -26.982
   5.761        -27.014
   5.774        -27.046
   5.787        -27.079
   5.800        -27.112
   5.813        -27.146
   5.826        -27.181
   5.839        -27.216
   5.852        -27.252
   5.865        -27.289
   5.878        -27.326
   5.891        -27.364
   5.904        -27.403
   5.917        -27.443
   5.930        -27.483
   5.943        -27.525
   5.956        -27.566
   5.969        -27.609
   5.982        -27.653
   5.995        -27.698
   6.008        -27.744
   6.021        -27.791
   6.034        -27.838
   6.047        -27.886
   6.060        -27.937
   6.073        -27.988
   6.086        -28.040
   6.099        -28.093
   6.112        -28.148
   6.125        -28.203
   6.138        -28.260
   6.151        -28.318
   6.164        -28.378
   6.177        -28.439
   6.190        -28.501
   6.203        -28.566
   6.216        -28.631
   6.229        -28.698
   6.242        -28.767
   6.255        -28.837
   6.268        -28.909
   6.281        -28.983
   6.294        -29.058
   6.307        -29.135
   6.320        -29.213
   6.334        -29.295
   6.346        -29.378
   6.359        -29.463
   6.372        -29.550
   6.386        -29.640
   6.399        -29.732
   6.411        -29.826
   6.425        -29.922
   6.438        -30.021
   6.451        -30.123
   6.464        -30.226
   6.477        -30.331
   6.490        -30.440
   6.503        -30.553
   6.516        -30.668
   6.529        -30.784
   6.542        -30.906
   6.555        -31.030
   6.568        -31.157
   6.581        -31.287
   6.594        -31.422
   6.607        -31.562
   6.620        -31.703
   6.633        -31.846
   6.646        -31.992
   6.659        -32.144
   6.672        -32.302
   6.685        -32.462
   6.698        -32.627
   6.711        -32.797
   6.724        -32.973
   6.737        -33.151
   6.750        -33.332
   6.763        -33.525
   6.776        -33.727
   6.789        -33.928
   6.802        -34.131
   6.815        -34.341
   6.828        -34.580
   6.841        -34.839
   6.854        -35.138
   6.867        -35.766
   6.880        -36.817
   6.893        -40.522
