# log Energy    log Jnu
# (eV)          (ergs/s/cm2/Hz/Sr)
  -6.864        -20.354
  -6.820        -20.267
  -6.777        -20.180
  -6.734        -20.093
  -6.690        -20.006
  -6.647        -19.919
  -6.603        -19.832
  -6.560        -19.746
  -6.516        -19.659
  -6.473        -19.572
  -6.430        -19.485
  -6.386        -19.398
  -6.343        -19.312
  -6.299        -19.225
  -6.256        -19.138
  -6.212        -19.051
  -6.169        -18.964
  -6.126        -18.877
  -6.082        -18.790
  -6.039        -18.704
  -5.995        -18.617
  -5.952        -18.530
  -5.908        -18.443
  -5.865        -18.357
  -5.822        -18.269
  -5.778        -18.183
  -5.735        -18.096
  -5.691        -18.009
  -5.648        -17.922
  -5.605        -17.835
  -5.561        -17.749
  -5.518        -17.662
  -5.474        -17.575
  -5.431        -17.488
  -5.387        -17.401
  -5.344        -17.315
  -5.300        -17.228
  -5.257        -17.141
  -5.214        -17.054
  -5.170        -16.968
  -5.127        -16.881
  -5.083        -16.794
  -5.040        -16.708
  -4.996        -16.621
  -4.953        -16.535
  -4.910        -16.448
  -4.866        -16.362
  -4.823        -16.275
  -4.779        -16.189
  -4.736        -16.102
  -4.692        -16.016
  -4.649        -15.929
  -4.606        -15.843
  -4.562        -15.756
  -4.519        -15.670
  -4.475        -15.584
  -4.432        -15.498
  -4.388        -15.412
  -4.345        -15.326
  -4.302        -15.241
  -4.258        -15.155
  -4.215        -15.069
  -4.171        -14.984
  -4.128        -14.899
  -4.084        -14.814
  -4.041        -14.729
  -3.998        -14.645
  -3.954        -14.560
  -3.911        -14.476
  -3.867        -14.392
  -3.824        -14.309
  -3.781        -14.226
  -3.737        -14.143
  -3.693        -14.061
  -3.650        -13.979
  -3.607        -13.898
  -3.584        -13.860
  -3.582        -13.850
  -3.580        -13.848
  -3.577        -13.845
  -3.575        -13.841
  -3.573        -13.837
  -3.571        -13.833
  -3.569        -13.829
  -3.567        -13.825
  -3.564        -13.821
  -3.562        -13.817
  -3.560        -13.813
  -3.558        -13.809
  -3.556        -13.805
  -3.554        -13.801
  -3.551        -13.797
  -3.549        -13.793
  -3.547        -13.789
  -3.545        -13.785
  -3.543        -13.781
  -3.540        -13.777
  -3.538        -13.773
  -3.536        -13.769
  -3.534        -13.765
  -3.532        -13.761
  -3.530        -13.757
  -3.528        -13.753
  -3.525        -13.749
  -3.523        -13.745
  -3.521        -13.741
  -3.519        -13.737
  -3.517        -13.733
  -3.514        -13.729
  -3.512        -13.725
  -3.510        -13.721
  -3.508        -13.717
  -3.506        -13.713
  -3.504        -13.709
  -3.502        -13.705
  -3.499        -13.701
  -3.497        -13.697
  -3.495        -13.693
  -3.493        -13.689
  -3.491        -13.685
  -3.488        -13.681
  -3.486        -13.678
  -3.484        -13.674
  -3.482        -13.670
  -3.480        -13.666
  -3.477        -13.662
  -3.475        -13.658
  -3.473        -13.654
  -3.471        -13.650
  -3.469        -13.646
  -3.467        -13.642
  -3.464        -13.638
  -3.462        -13.634
  -3.460        -13.630
  -3.458        -13.626
  -3.456        -13.623
  -3.454        -13.618
  -3.451        -13.615
  -3.449        -13.611
  -3.447        -13.607
  -3.445        -13.603
  -3.443        -13.599
  -3.441        -13.595
  -3.438        -13.591
  -3.436        -13.587
  -3.434        -13.583
  -3.432        -13.580
  -3.430        -13.576
  -3.428        -13.572
  -3.425        -13.568
  -3.423        -13.564
  -3.421        -13.560
  -3.419        -13.556
  -3.417        -13.552
  -3.415        -13.549
  -3.412        -13.545
  -3.410        -13.541
  -3.408        -13.537
  -3.406        -13.533
  -3.404        -13.529
  -3.402        -13.525
  -3.399        -13.522
  -3.397        -13.518
  -3.395        -13.514
  -3.393        -13.510
  -3.391        -13.506
  -3.389        -13.502
  -3.386        -13.498
  -3.384        -13.495
  -3.382        -13.491
  -3.380        -13.487
  -3.378        -13.483
  -3.376        -13.479
  -3.373        -13.476
  -3.371        -13.472
  -3.369        -13.468
  -3.367        -13.464
  -3.365        -13.460
  -3.362        -13.457
  -3.360        -13.453
  -3.358        -13.449
  -3.356        -13.445
  -3.354        -13.441
  -3.352        -13.437
  -3.349        -13.434
  -3.347        -13.430
  -3.345        -13.426
  -3.343        -13.422
  -3.341        -13.419
  -3.339        -13.415
  -3.336        -13.411
  -3.334        -13.407
  -3.332        -13.404
  -3.330        -13.400
  -3.328        -13.396
  -3.326        -13.392
  -3.323        -13.389
  -3.321        -13.385
  -3.319        -13.381
  -3.317        -13.377
  -3.315        -13.374
  -3.313        -13.370
  -3.310        -13.366
  -3.308        -13.362
  -3.306        -13.359
  -3.304        -13.355
  -3.302        -13.351
  -3.300        -13.347
  -3.297        -13.344
  -3.295        -13.340
  -3.293        -13.336
  -3.291        -13.333
  -3.289        -13.329
  -3.287        -13.325
  -3.284        -13.322
  -3.282        -13.318
  -3.280        -13.314
  -3.278        -13.310
  -3.276        -13.307
  -3.273        -13.303
  -3.271        -13.300
  -3.269        -13.296
  -3.267        -13.292
  -3.265        -13.289
  -3.263        -13.285
  -3.260        -13.281
  -3.258        -13.278
  -3.256        -13.274
  -3.254        -13.270
  -3.252        -13.267
  -3.250        -13.263
  -3.247        -13.259
  -3.245        -13.256
  -3.243        -13.252
  -3.241        -13.249
  -3.239        -13.245
  -3.237        -13.241
  -3.234        -13.238
  -3.232        -13.234
  -3.230        -13.231
  -3.228        -13.227
  -3.226        -13.223
  -3.224        -13.220
  -3.221        -13.216
  -3.219        -13.213
  -3.217        -13.209
  -3.215        -13.206
  -3.213        -13.202
  -3.211        -13.198
  -3.208        -13.195
  -3.206        -13.191
  -3.204        -13.188
  -3.202        -13.184
  -3.200        -13.181
  -3.197        -13.177
  -3.195        -13.173
  -3.193        -13.170
  -3.191        -13.166
  -3.189        -13.163
  -3.187        -13.160
  -3.184        -13.156
  -3.182        -13.152
  -3.180        -13.149
  -3.178        -13.145
  -3.176        -13.142
  -3.174        -13.139
  -3.171        -13.135
  -3.169        -13.132
  -3.167        -13.128
  -3.165        -13.125
  -3.163        -13.121
  -3.161        -13.118
  -3.158        -13.114
  -3.156        -13.111
  -3.154        -13.107
  -3.152        -13.104
  -3.150        -13.100
  -3.148        -13.097
  -3.145        -13.094
  -3.143        -13.090
  -3.141        -13.087
  -3.139        -13.083
  -3.137        -13.080
  -3.135        -13.077
  -3.132        -13.073
  -3.130        -13.070
  -3.128        -13.067
  -3.126        -13.063
  -3.124        -13.060
  -3.122        -13.056
  -3.119        -13.053
  -3.117        -13.050
  -3.115        -13.046
  -3.113        -13.043
  -3.111        -13.040
  -3.108        -13.036
  -3.106        -13.033
  -3.104        -13.030
  -3.102        -13.026
  -3.100        -13.023
  -3.098        -13.020
  -3.095        -13.017
  -3.093        -13.013
  -3.091        -13.010
  -3.089        -13.007
  -3.087        -13.004
  -3.085        -13.000
  -3.082        -12.997
  -3.080        -12.994
  -3.078        -12.990
  -3.076        -12.987
  -3.074        -12.984
  -3.072        -12.981
  -3.069        -12.978
  -3.067        -12.974
  -3.065        -12.971
  -3.063        -12.968
  -3.061        -12.965
  -3.059        -12.962
  -3.056        -12.958
  -3.054        -12.955
  -3.052        -12.952
  -3.050        -12.949
  -3.048        -12.946
  -3.046        -12.943
  -3.043        -12.940
  -3.041        -12.936
  -3.039        -12.933
  -3.037        -12.930
  -3.035        -12.927
  -3.032        -12.924
  -3.030        -12.921
  -3.028        -12.918
  -3.026        -12.915
  -3.024        -12.912
  -3.022        -12.908
  -3.019        -12.905
  -3.017        -12.902
  -3.015        -12.899
  -3.013        -12.896
  -3.011        -12.893
  -3.009        -12.890
  -3.006        -12.887
  -3.004        -12.884
  -3.002        -12.881
  -3.000        -12.878
  -2.998        -12.875
  -2.996        -12.872
  -2.993        -12.869
  -2.991        -12.866
  -2.989        -12.863
  -2.987        -12.860
  -2.985        -12.857
  -2.983        -12.855
  -2.980        -12.852
  -2.978        -12.849
  -2.976        -12.846
  -2.974        -12.843
  -2.972        -12.840
  -2.970        -12.837
  -2.967        -12.834
  -2.965        -12.831
  -2.963        -12.829
  -2.961        -12.826
  -2.959        -12.823
  -2.956        -12.820
  -2.954        -12.817
  -2.952        -12.814
  -2.950        -12.812
  -2.948        -12.809
  -2.946        -12.806
  -2.944        -12.803
  -2.941        -12.800
  -2.939        -12.798
  -2.937        -12.795
  -2.935        -12.792
  -2.933        -12.789
  -2.930        -12.787
  -2.928        -12.784
  -2.926        -12.781
  -2.924        -12.779
  -2.922        -12.776
  -2.920        -12.773
  -2.917        -12.771
  -2.915        -12.768
  -2.913        -12.765
  -2.911        -12.763
  -2.909        -12.760
  -2.907        -12.757
  -2.904        -12.755
  -2.902        -12.752
  -2.900        -12.750
  -2.898        -12.747
  -2.896        -12.745
  -2.894        -12.742
  -2.891        -12.739
  -2.889        -12.737
  -2.887        -12.734
  -2.885        -12.732
  -2.883        -12.729
  -2.880        -12.727
  -2.878        -12.724
  -2.876        -12.722
  -2.874        -12.719
  -2.872        -12.717
  -2.870        -12.714
  -2.867        -12.712
  -2.865        -12.710
  -2.863        -12.707
  -2.861        -12.705
  -2.859        -12.703
  -2.857        -12.700
  -2.855        -12.698
  -2.852        -12.696
  -2.850        -12.693
  -2.848        -12.691
  -2.846        -12.689
  -2.843        -12.686
  -2.842        -12.684
  -2.839        -12.682
  -2.837        -12.679
  -2.835        -12.677
  -2.833        -12.675
  -2.831        -12.673
  -2.828        -12.671
  -2.826        -12.669
  -2.824        -12.666
  -2.822        -12.664
  -2.820        -12.662
  -2.817        -12.660
  -2.815        -12.658
  -2.813        -12.655
  -2.811        -12.654
  -2.809        -12.651
  -2.807        -12.649
  -2.805        -12.647
  -2.802        -12.645
  -2.800        -12.643
  -2.798        -12.641
  -2.796        -12.639
  -2.794        -12.637
  -2.792        -12.635
  -2.789        -12.633
  -2.787        -12.631
  -2.785        -12.629
  -2.783        -12.627
  -2.781        -12.625
  -2.779        -12.624
  -2.776        -12.622
  -2.774        -12.620
  -2.772        -12.618
  -2.770        -12.616
  -2.767        -12.614
  -2.765        -12.612
  -2.763        -12.611
  -2.761        -12.609
  -2.759        -12.607
  -2.757        -12.605
  -2.754        -12.604
  -2.753        -12.602
  -2.750        -12.600
  -2.748        -12.599
  -2.746        -12.597
  -2.744        -12.595
  -2.741        -12.594
  -2.739        -12.592
  -2.737        -12.590
  -2.735        -12.589
  -2.733        -12.587
  -2.731        -12.586
  -2.729        -12.584
  -2.726        -12.583
  -2.724        -12.581
  -2.722        -12.580
  -2.720        -12.578
  -2.718        -12.577
  -2.716        -12.575
  -2.713        -12.574
  -2.711        -12.573
  -2.709        -12.571
  -2.707        -12.570
  -2.705        -12.568
  -2.703        -12.567
  -2.700        -12.566
  -2.698        -12.565
  -2.696        -12.563
  -2.694        -12.562
  -2.692        -12.561
  -2.689        -12.560
  -2.687        -12.558
  -2.685        -12.557
  -2.683        -12.556
  -2.681        -12.555
  -2.679        -12.554
  -2.677        -12.553
  -2.674        -12.552
  -2.672        -12.551
  -2.670        -12.550
  -2.668        -12.549
  -2.666        -12.548
  -2.663        -12.547
  -2.661        -12.546
  -2.659        -12.545
  -2.657        -12.544
  -2.655        -12.543
  -2.653        -12.542
  -2.650        -12.541
  -2.648        -12.541
  -2.646        -12.540
  -2.644        -12.539
  -2.642        -12.538
  -2.640        -12.538
  -2.637        -12.537
  -2.635        -12.536
  -2.633        -12.535
  -2.631        -12.535
  -2.629        -12.534
  -2.626        -12.534
  -2.624        -12.533
  -2.622        -12.533
  -2.620        -12.532
  -2.618        -12.532
  -2.616        -12.531
  -2.614        -12.530
  -2.611        -12.530
  -2.609        -12.530
  -2.607        -12.529
  -2.605        -12.529
  -2.603        -12.529
  -2.600        -12.528
  -2.598        -12.528
  -2.596        -12.528
  -2.594        -12.527
  -2.592        -12.527
  -2.590        -12.527
  -2.587        -12.527
  -2.585        -12.527
  -2.583        -12.527
  -2.581        -12.527
  -2.579        -12.527
  -2.577        -12.527
  -2.574        -12.527
  -2.572        -12.527
  -2.570        -12.527
  -2.568        -12.527
  -2.566        -12.527
  -2.564        -12.527
  -2.561        -12.527
  -2.559        -12.527
  -2.557        -12.527
  -2.555        -12.528
  -2.553        -12.528
  -2.551        -12.528
  -2.548        -12.529
  -2.546        -12.529
  -2.544        -12.529
  -2.542        -12.530
  -2.540        -12.530
  -2.538        -12.531
  -2.535        -12.531
  -2.533        -12.532
  -2.531        -12.532
  -2.529        -12.533
  -2.527        -12.534
  -2.525        -12.534
  -2.522        -12.535
  -2.520        -12.536
  -2.518        -12.536
  -2.516        -12.537
  -2.514        -12.538
  -2.511        -12.539
  -2.509        -12.540
  -2.507        -12.541
  -2.505        -12.542
  -2.503        -12.543
  -2.501        -12.543
  -2.498        -12.545
  -2.496        -12.546
  -2.494        -12.547
  -2.492        -12.548
  -2.490        -12.549
  -2.488        -12.550
  -2.485        -12.552
  -2.483        -12.553
  -2.481        -12.554
  -2.479        -12.556
  -2.477        -12.557
  -2.475        -12.558
  -2.472        -12.560
  -2.470        -12.561
  -2.468        -12.563
  -2.466        -12.564
  -2.464        -12.566
  -2.462        -12.568
  -2.459        -12.569
  -2.457        -12.571
  -2.455        -12.573
  -2.453        -12.575
  -2.451        -12.576
  -2.448        -12.578
  -2.446        -12.580
  -2.444        -12.582
  -2.442        -12.584
  -2.440        -12.586
  -2.438        -12.588
  -2.435        -12.590
  -2.433        -12.592
  -2.431        -12.595
  -2.429        -12.597
  -2.427        -12.599
  -2.425        -12.601
  -2.422        -12.604
  -2.420        -12.606
  -2.418        -12.608
  -2.416        -12.611
  -2.414        -12.613
  -2.412        -12.616
  -2.409        -12.619
  -2.407        -12.621
  -2.405        -12.624
  -2.403        -12.627
  -2.401        -12.629
  -2.398        -12.632
  -2.396        -12.635
  -2.394        -12.638
  -2.392        -12.641
  -2.390        -12.644
  -2.388        -12.647
  -2.386        -12.650
  -2.383        -12.653
  -2.381        -12.656
  -2.379        -12.659
  -2.377        -12.663
  -2.375        -12.666
  -2.372        -12.669
  -2.370        -12.673
  -2.368        -12.676
  -2.366        -12.680
  -2.364        -12.683
  -2.362        -12.687
  -2.359        -12.690
  -2.357        -12.694
  -2.355        -12.698
  -2.353        -12.701
  -2.351        -12.705
  -2.349        -12.709
  -2.346        -12.713
  -2.344        -12.717
  -2.342        -12.721
  -2.340        -12.725
  -2.338        -12.729
  -2.336        -12.733
  -2.333        -12.738
  -2.331        -12.742
  -2.329        -12.746
  -2.327        -12.751
  -2.325        -12.755
  -2.323        -12.760
  -2.320        -12.764
  -2.318        -12.769
  -2.316        -12.773
  -2.314        -12.778
  -2.312        -12.783
  -2.309        -12.788
  -2.307        -12.793
  -2.305        -12.798
  -2.303        -12.803
  -2.301        -12.808
  -2.299        -12.813
  -2.297        -12.818
  -2.294        -12.823
  -2.292        -12.828
  -2.290        -12.834
  -2.288        -12.839
  -2.286        -12.844
  -2.283        -12.850
  -2.281        -12.856
  -2.279        -12.861
  -2.277        -12.867
  -2.275        -12.873
  -2.273        -12.878
  -2.270        -12.884
  -2.268        -12.890
  -2.266        -12.896
  -2.264        -12.902
  -2.262        -12.908
  -2.260        -12.914
  -2.257        -12.920
  -2.255        -12.927
  -2.253        -12.933
  -2.251        -12.940
  -2.249        -12.946
  -2.247        -12.953
  -2.244        -12.959
  -2.242        -12.966
  -2.240        -12.973
  -2.238        -12.979
  -2.236        -12.986
  -2.234        -12.993
  -2.231        -13.000
  -2.229        -13.007
  -2.227        -13.015
  -2.225        -13.022
  -2.223        -13.029
  -2.220        -13.036
  -2.218        -13.044
  -2.216        -13.051
  -2.214        -13.059
  -2.212        -13.066
  -2.210        -13.074
  -2.207        -13.082
  -2.205        -13.090
  -2.203        -13.098
  -2.201        -13.106
  -2.199        -13.114
  -2.197        -13.122
  -2.194        -13.130
  -2.192        -13.138
  -2.190        -13.146
  -2.188        -13.155
  -2.186        -13.163
  -2.184        -13.172
  -2.181        -13.181
  -2.179        -13.189
  -2.177        -13.198
  -2.175        -13.207
  -2.173        -13.216
  -2.171        -13.225
  -2.168        -13.234
  -2.166        -13.243
  -2.164        -13.252
  -2.162        -13.262
  -2.160        -13.271
  -2.158        -13.281
  -2.155        -13.290
  -2.153        -13.300
  -2.151        -13.310
  -2.149        -13.319
  -2.147        -13.329
  -2.145        -13.339
  -2.142        -13.349
  -2.140        -13.359
  -2.138        -13.370
  -2.136        -13.380
  -2.134        -13.390
  -2.131        -13.401
  -2.129        -13.411
  -2.127        -13.422
  -2.125        -13.433
  -2.123        -13.444
  -2.121        -13.455
  -2.118        -13.465
  -2.116        -13.477
  -2.114        -13.488
  -2.112        -13.499
  -2.110        -13.510
  -2.108        -13.522
  -2.105        -13.533
  -2.103        -13.545
  -2.101        -13.557
  -2.099        -13.568
  -2.097        -13.580
  -2.095        -13.592
  -2.092        -13.604
  -2.090        -13.616
  -2.088        -13.629
  -2.086        -13.641
  -2.084        -13.653
  -2.082        -13.666
  -2.079        -13.679
  -2.077        -13.691
  -2.075        -13.704
  -2.073        -13.717
  -2.071        -13.730
  -2.069        -13.743
  -2.066        -13.756
  -2.064        -13.770
  -2.062        -13.783
  -2.060        -13.797
  -2.058        -13.810
  -2.056        -13.824
  -2.053        -13.838
  -2.051        -13.852
  -2.049        -13.866
  -2.047        -13.880
  -2.045        -13.894
  -2.043        -13.908
  -2.040        -13.923
  -2.038        -13.937
  -2.036        -13.952
  -2.034        -13.967
  -2.032        -13.982
  -2.029        -13.997
  -2.027        -14.012
  -2.025        -14.027
  -2.023        -14.042
  -2.021        -14.058
  -2.019        -14.073
  -2.016        -14.089
  -2.014        -14.104
  -2.012        -14.120
  -2.010        -14.136
  -2.008        -14.152
  -2.006        -14.168
  -2.003        -14.185
  -2.001        -14.201
  -1.999        -14.218
  -1.997        -14.234
  -1.995        -14.251
  -1.993        -14.268
  -1.990        -14.285
  -1.988        -14.302
  -1.986        -14.319
  -1.984        -14.337
  -1.982        -14.354
  -1.980        -14.372
  -1.977        -14.389
  -1.975        -14.407
  -1.973        -14.425
  -1.971        -14.443
  -1.969        -14.461
  -1.967        -14.480
  -1.964        -14.498
  -1.962        -14.517
  -1.960        -14.535
  -1.958        -14.554
  -1.956        -14.573
  -1.953        -14.592
  -1.951        -14.611
  -1.949        -14.630
  -1.947        -14.650
  -1.945        -14.670
  -1.943        -14.689
  -1.940        -14.709
  -1.938        -14.729
  -1.936        -14.749
  -1.934        -14.769
  -1.932        -14.790
  -1.930        -14.810
  -1.927        -14.831
  -1.925        -14.852
  -1.923        -14.873
  -1.921        -14.894
  -1.919        -14.915
  -1.917        -14.936
  -1.914        -14.958
  -1.912        -14.979
  -1.910        -15.001
  -1.908        -15.023
  -1.906        -15.045
  -1.904        -15.067
  -1.901        -15.090
  -1.899        -15.112
  -1.897        -15.135
  -1.895        -15.157
  -1.893        -15.180
  -1.891        -15.203
  -1.888        -15.226
  -1.886        -15.250
  -1.884        -15.273
  -1.882        -15.297
  -1.880        -15.321
  -1.877        -15.345
  -1.875        -15.369
  -1.873        -15.393
  -1.871        -15.417
  -1.869        -15.442
  -1.867        -15.467
  -1.864        -15.492
  -1.862        -15.516
  -1.860        -15.542
  -1.858        -15.567
  -1.856        -15.593
  -1.853        -15.619
  -1.851        -15.644
  -1.849        -15.670
  -1.847        -15.696
  -1.845        -15.722
  -1.843        -15.749
  -1.841        -15.776
  -1.838        -15.803
  -1.836        -15.830
  -1.834        -15.857
  -1.832        -15.884
  -1.830        -15.911
  -1.828        -15.939
  -1.825        -15.967
  -1.823        -15.995
  -1.821        -16.023
  -1.819        -16.051
  -1.817        -16.080
  -1.815        -16.108
  -1.812        -16.137
  -1.810        -16.166
  -1.808        -16.195
  -1.806        -16.225
  -1.804        -16.254
  -1.801        -16.284
  -1.799        -16.314
  -1.797        -16.344
  -1.795        -16.374
  -1.793        -16.404
  -1.791        -16.435
  -1.788        -16.466
  -1.786        -16.497
  -1.784        -16.528
  -1.782        -16.559
  -1.780        -16.591
  -1.777        -16.622
  -1.775        -16.654
  -1.773        -16.686
  -1.771        -16.718
  -1.769        -16.751
  -1.767        -16.783
  -1.764        -16.816
  -1.763        -16.849
  -1.760        -16.882
  -1.758        -16.915
  -1.756        -16.948
  -1.754        -16.982
  -1.752        -17.016
  -1.749        -17.049
  -1.747        -17.083
  -1.745        -17.118
  -1.743        -17.152
  -1.741        -17.186
  -1.739        -17.221
  -1.736        -17.256
  -1.734        -17.291
  -1.732        -17.326
  -1.730        -17.361
  -1.728        -17.396
  -1.726        -17.431
  -1.723        -17.466
  -1.721        -17.502
  -1.719        -17.538
  -1.717        -17.573
  -1.715        -17.609
  -1.713        -17.645
  -1.710        -17.681
  -1.708        -17.716
  -1.706        -17.752
  -1.704        -17.788
  -1.702        -17.823
  -1.699        -17.859
  -1.697        -17.894
  -1.695        -17.929
  -1.693        -17.965
  -1.691        -17.999
  -1.689        -18.034
  -1.686        -18.068
  -1.684        -18.102
  -1.682        -18.136
  -1.680        -18.169
  -1.678        -18.202
  -1.675        -18.235
  -1.673        -18.266
  -1.671        -18.297
  -1.669        -18.328
  -1.667        -18.358
  -1.665        -18.387
  -1.663        -18.415
  -1.660        -18.443
  -1.658        -18.470
  -1.656        -18.495
  -1.654        -18.520
  -1.652        -18.544
  -1.650        -18.567
  -1.647        -18.589
  -1.645        -18.610
  -1.643        -18.630
  -1.641        -18.649
  -1.639        -18.667
  -1.637        -18.683
  -1.634        -18.699
  -1.632        -18.714
  -1.630        -18.728
  -1.628        -18.741
  -1.626        -18.753
  -1.623        -18.765
  -1.621        -18.775
  -1.619        -18.785
  -1.617        -18.794
  -1.615        -18.802
  -1.613        -18.810
  -1.611        -18.817
  -1.608        -18.824
  -1.606        -18.830
  -1.604        -18.835
  -1.602        -18.840
  -1.600        -18.845
  -1.597        -18.849
  -1.595        -18.853
  -1.593        -18.857
  -1.591        -18.860
  -1.589        -18.863
  -1.587        -18.866
  -1.584        -18.869
  -1.582        -18.871
  -1.580        -18.874
  -1.578        -18.876
  -1.576        -18.877
  -1.573        -18.880
  -1.571        -18.882
  -1.569        -18.883
  -1.567        -18.885
  -1.565        -18.886
  -1.563        -18.887
  -1.561        -18.889
  -1.558        -18.890
  -1.556        -18.891
  -1.554        -18.892
  -1.552        -18.894
  -1.550        -18.895
  -1.547        -18.896
  -1.545        -18.897
  -1.543        -18.898
  -1.541        -18.899
  -1.539        -18.900
  -1.537        -18.901
  -1.534        -18.902
  -1.532        -18.903
  -1.530        -18.904
  -1.528        -18.905
  -1.526        -18.905
  -1.524        -18.906
  -1.522        -18.907
  -1.519        -18.908
  -1.517        -18.909
  -1.515        -18.910
  -1.513        -18.911
  -1.511        -18.911
  -1.508        -18.912
  -1.506        -18.913
  -1.504        -18.914
  -1.502        -18.915
  -1.500        -18.915
  -1.498        -18.917
  -1.495        -18.917
  -1.493        -18.918
  -1.491        -18.919
  -1.489        -18.920
  -1.487        -18.921
  -1.484        -18.922
  -1.482        -18.922
  -1.480        -18.923
  -1.478        -18.924
  -1.476        -18.925
  -1.474        -18.926
  -1.472        -18.927
  -1.469        -18.927
  -1.467        -18.928
  -1.465        -18.929
  -1.463        -18.930
  -1.461        -18.931
  -1.458        -18.932
  -1.456        -18.932
  -1.454        -18.933
  -1.452        -18.934
  -1.450        -18.935
  -1.448        -18.935
  -1.445        -18.936
  -1.443        -18.937
  -1.441        -18.938
  -1.439        -18.939
  -1.437        -18.940
  -1.435        -18.941
  -1.432        -18.941
  -1.430        -18.942
  -1.428        -18.943
  -1.426        -18.944
  -1.424        -18.945
  -1.422        -18.945
  -1.419        -18.946
  -1.417        -18.947
  -1.415        -18.948
  -1.413        -18.949
  -1.411        -18.949
  -1.409        -18.950
  -1.406        -18.951
  -1.404        -18.952
  -1.402        -18.953
  -1.400        -18.953
  -1.398        -18.954
  -1.396        -18.955
  -1.393        -18.956
  -1.391        -18.956
  -1.389        -18.957
  -1.387        -18.958
  -1.385        -18.959
  -1.383        -18.959
  -1.380        -18.960
  -1.378        -18.961
  -1.376        -18.962
  -1.374        -18.963
  -1.372        -18.964
  -1.370        -18.965
  -1.367        -18.965
  -1.365        -18.966
  -1.363        -18.967
  -1.361        -18.968
  -1.359        -18.968
  -1.356        -18.969
  -1.354        -18.970
  -1.352        -18.971
  -1.350        -18.971
  -1.348        -18.972
  -1.346        -18.973
  -1.343        -18.974
  -1.341        -18.974
  -1.339        -18.975
  -1.337        -18.976
  -1.335        -18.977
  -1.333        -18.978
  -1.330        -18.979
  -1.328        -18.980
  -1.326        -18.980
  -1.324        -18.981
  -1.322        -18.982
  -1.320        -18.983
  -1.317        -18.983
  -1.315        -18.984
  -1.313        -18.985
  -1.311        -18.986
  -1.309        -18.986
  -1.307        -18.987
  -1.304        -18.988
  -1.302        -18.989
  -1.300        -18.990
  -1.298        -18.991
  -1.296        -18.991
  -1.293        -18.992
  -1.291        -18.993
  -1.289        -18.994
  -1.287        -18.995
  -1.285        -18.995
  -1.283        -18.996
  -1.280        -18.997
  -1.278        -18.998
  -1.276        -18.998
  -1.274        -18.999
  -1.272        -19.000
  -1.270        -19.001
  -1.267        -19.002
  -1.265        -19.003
  -1.263        -19.003
  -1.261        -19.004
  -1.259        -19.005
  -1.257        -19.006
  -1.254        -19.006
  -1.252        -19.007
  -1.250        -19.008
  -1.248        -19.009
  -1.246        -19.010
  -1.243        -19.011
  -1.241        -19.011
  -1.239        -19.012
  -1.237        -19.013
  -1.235        -19.014
  -1.233        -19.014
  -1.231        -19.015
  -1.228        -19.016
  -1.226        -19.017
  -1.224        -19.018
  -1.222        -19.019
  -1.220        -19.019
  -1.217        -19.020
  -1.215        -19.021
  -1.213        -19.022
  -1.211        -19.023
  -1.209        -19.024
  -1.207        -19.024
  -1.204        -19.025
  -1.202        -19.026
  -1.200        -19.027
  -1.198        -19.028
  -1.196        -19.029
  -1.194        -19.029
  -1.191        -19.030
  -1.189        -19.031
  -1.187        -19.032
  -1.185        -19.033
  -1.183        -19.034
  -1.181        -19.035
  -1.178        -19.036
  -1.176        -19.036
  -1.174        -19.037
  -1.172        -19.038
  -1.170        -19.039
  -1.168        -19.040
  -1.165        -19.041
  -1.163        -19.042
  -1.161        -19.043
  -1.159        -19.044
  -1.157        -19.045
  -1.155        -19.046
  -1.152        -19.047
  -1.150        -19.048
  -1.148        -19.049
  -1.146        -19.050
  -1.144        -19.051
  -1.142        -19.052
  -1.139        -19.053
  -1.137        -19.053
  -1.135        -19.055
  -1.133        -19.056
  -1.131        -19.056
  -1.129        -19.057
  -1.126        -19.059
  -1.124        -19.060
  -1.122        -19.061
  -1.120        -19.062
  -1.118        -19.063
  -1.115        -19.064
  -1.113        -19.065
  -1.111        -19.066
  -1.109        -19.067
  -1.107        -19.068
  -1.105        -19.070
  -1.102        -19.071
  -1.100        -19.072
  -1.098        -19.073
  -1.096        -19.074
  -1.094        -19.075
  -1.092        -19.076
  -1.089        -19.078
  -1.087        -19.079
  -1.085        -19.080
  -1.083        -19.082
  -1.081        -19.083
  -1.079        -19.084
  -1.076        -19.085
  -1.074        -19.086
  -1.072        -19.088
  -1.070        -19.089
  -1.068        -19.091
  -1.066        -19.092
  -1.063        -19.093
  -1.061        -19.095
  -1.059        -19.096
  -1.057        -19.098
  -1.055        -19.099
  -1.052        -19.100
  -1.050        -19.102
  -1.048        -19.104
  -1.046        -19.105
  -1.044        -19.107
  -1.042        -19.109
  -1.039        -19.110
  -1.037        -19.112
  -1.035        -19.114
  -1.033        -19.115
  -1.031        -19.117
  -1.029        -19.119
  -1.026        -19.121
  -1.024        -19.122
  -1.022        -19.124
  -1.020        -19.126
  -1.018        -19.128
  -1.016        -19.130
  -1.013        -19.132
  -1.011        -19.134
  -1.009        -19.136
  -1.007        -19.138
  -1.005        -19.140
  -1.003        -19.142
  -1.000        -19.144
  -0.998        -19.146
  -0.996        -19.148
  -0.994        -19.150
  -0.992        -19.152
  -0.990        -19.154
  -0.987        -19.156
  -0.985        -19.158
  -0.983        -19.160
  -0.981        -19.162
  -0.979        -19.164
  -0.977        -19.166
  -0.974        -19.168
  -0.972        -19.170
  -0.970        -19.172
  -0.968        -19.174
  -0.966        -19.175
  -0.963        -19.177
  -0.961        -19.179
  -0.959        -19.181
  -0.957        -19.183
  -0.955        -19.185
  -0.953        -19.186
  -0.950        -19.188
  -0.948        -19.190
  -0.946        -19.192
  -0.944        -19.194
  -0.942        -19.195
  -0.940        -19.197
  -0.937        -19.199
  -0.935        -19.200
  -0.933        -19.202
  -0.931        -19.204
  -0.929        -19.205
  -0.927        -19.207
  -0.924        -19.208
  -0.922        -19.210
  -0.920        -19.211
  -0.918        -19.213
  -0.916        -19.214
  -0.914        -19.216
  -0.911        -19.218
  -0.909        -19.219
  -0.907        -19.221
  -0.905        -19.222
  -0.903        -19.223
  -0.900        -19.225
  -0.898        -19.226
  -0.896        -19.227
  -0.894        -19.229
  -0.892        -19.230
  -0.890        -19.231
  -0.887        -19.233
  -0.885        -19.234
  -0.883        -19.235
  -0.881        -19.237
  -0.879        -19.238
  -0.877        -19.239
  -0.874        -19.240
  -0.872        -19.241
  -0.870        -19.242
  -0.868        -19.244
  -0.866        -19.245
  -0.864        -19.246
  -0.862        -19.247
  -0.859        -19.248
  -0.857        -19.249
  -0.855        -19.250
  -0.853        -19.251
  -0.851        -19.252
  -0.848        -19.253
  -0.846        -19.254
  -0.844        -19.255
  -0.842        -19.256
  -0.840        -19.257
  -0.838        -19.257
  -0.835        -19.258
  -0.833        -19.259
  -0.831        -19.260
  -0.829        -19.261
  -0.827        -19.261
  -0.825        -19.262
  -0.822        -19.263
  -0.820        -19.264
  -0.818        -19.264
  -0.816        -19.265
  -0.814        -19.265
  -0.812        -19.266
  -0.809        -19.267
  -0.807        -19.267
  -0.805        -19.268
  -0.803        -19.268
  -0.801        -19.269
  -0.799        -19.269
  -0.796        -19.270
  -0.794        -19.270
  -0.792        -19.271
  -0.790        -19.271
  -0.788        -19.272
  -0.785        -19.272
  -0.783        -19.273
  -0.781        -19.273
  -0.779        -19.273
  -0.777        -19.274
  -0.774        -19.274
  -0.772        -19.274
  -0.770        -19.274
  -0.768        -19.275
  -0.766        -19.275
  -0.764        -19.275
  -0.762        -19.275
  -0.759        -19.276
  -0.757        -19.276
  -0.755        -19.276
  -0.753        -19.276
  -0.751        -19.276
  -0.748        -19.276
  -0.746        -19.276
  -0.744        -19.276
  -0.742        -19.276
  -0.740        -19.276
  -0.738        -19.276
  -0.736        -19.276
  -0.733        -19.276
  -0.731        -19.276
  -0.729        -19.276
  -0.727        -19.276
  -0.725        -19.276
  -0.723        -19.275
  -0.720        -19.276
  -0.718        -19.275
  -0.716        -19.275
  -0.714        -19.275
  -0.712        -19.274
  -0.709        -19.274
  -0.707        -19.274
  -0.705        -19.273
  -0.703        -19.273
  -0.701        -19.273
  -0.699        -19.272
  -0.697        -19.272
  -0.694        -19.271
  -0.692        -19.270
  -0.690        -19.270
  -0.688        -19.269
  -0.685        -19.268
  -0.683        -19.268
  -0.681        -19.267
  -0.679        -19.266
  -0.677        -19.266
  -0.675        -19.265
  -0.673        -19.264
  -0.670        -19.263
  -0.668        -19.262
  -0.666        -19.261
  -0.664        -19.260
  -0.662        -19.259
  -0.659        -19.258
  -0.657        -19.257
  -0.655        -19.256
  -0.653        -19.254
  -0.651        -19.253
  -0.649        -19.252
  -0.647        -19.251
  -0.644        -19.249
  -0.642        -19.248
  -0.640        -19.247
  -0.638        -19.246
  -0.636        -19.245
  -0.633        -19.243
  -0.631        -19.242
  -0.629        -19.240
  -0.627        -19.239
  -0.625        -19.237
  -0.623        -19.236
  -0.621        -19.234
  -0.618        -19.233
  -0.616        -19.232
  -0.614        -19.230
  -0.612        -19.228
  -0.610        -19.227
  -0.608        -19.225
  -0.605        -19.223
  -0.603        -19.222
  -0.601        -19.220
  -0.599        -19.218
  -0.596        -19.217
  -0.594        -19.215
  -0.592        -19.213
  -0.590        -19.211
  -0.588        -19.210
  -0.586        -19.208
  -0.584        -19.206
  -0.581        -19.204
  -0.579        -19.202
  -0.577        -19.200
  -0.575        -19.198
  -0.573        -19.197
  -0.571        -19.195
  -0.568        -19.193
  -0.566        -19.191
  -0.564        -19.189
  -0.562        -19.187
  -0.560        -19.185
  -0.557        -19.183
  -0.555        -19.181
  -0.553        -19.179
  -0.551        -19.178
  -0.549        -19.176
  -0.547        -19.174
  -0.544        -19.172
  -0.542        -19.170
  -0.540        -19.168
  -0.538        -19.166
  -0.536        -19.164
  -0.534        -19.162
  -0.531        -19.160
  -0.529        -19.158
  -0.527        -19.156
  -0.525        -19.155
  -0.523        -19.153
  -0.521        -19.151
  -0.518        -19.149
  -0.516        -19.147
  -0.514        -19.145
  -0.512        -19.143
  -0.510        -19.142
  -0.507        -19.140
  -0.505        -19.138
  -0.503        -19.136
  -0.501        -19.134
  -0.499        -19.132
  -0.497        -19.130
  -0.495        -19.129
  -0.492        -19.127
  -0.490        -19.125
  -0.488        -19.123
  -0.486        -19.121
  -0.484        -19.120
  -0.482        -19.118
  -0.479        -19.116
  -0.477        -19.114
  -0.475        -19.113
  -0.473        -19.111
  -0.471        -19.109
  -0.468        -19.108
  -0.466        -19.106
  -0.464        -19.104
  -0.462        -19.102
  -0.460        -19.101
  -0.458        -19.099
  -0.455        -19.097
  -0.453        -19.096
  -0.451        -19.094
  -0.449        -19.092
  -0.447        -19.090
  -0.445        -19.089
  -0.442        -19.087
  -0.440        -19.085
  -0.438        -19.084
  -0.436        -19.082
  -0.434        -19.080
  -0.432        -19.079
  -0.429        -19.077
  -0.427        -19.075
  -0.425        -19.074
  -0.423        -19.072
  -0.421        -19.070
  -0.419        -19.068
  -0.416        -19.067
  -0.414        -19.065
  -0.412        -19.064
  -0.410        -19.062
  -0.408        -19.060
  -0.405        -19.058
  -0.403        -19.057
  -0.401        -19.055
  -0.399        -19.054
  -0.397        -19.052
  -0.395        -19.051
  -0.392        -19.049
  -0.390        -19.047
  -0.388        -19.046
  -0.386        -19.044
  -0.384        -19.042
  -0.382        -19.041
  -0.379        -19.039
  -0.377        -19.038
  -0.375        -19.036
  -0.373        -19.034
  -0.371        -19.033
  -0.369        -19.031
  -0.366        -19.029
  -0.364        -19.028
  -0.362        -19.026
  -0.360        -19.024
  -0.358        -19.023
  -0.356        -19.021
  -0.353        -19.019
  -0.351        -19.018
  -0.349        -19.016
  -0.347        -19.015
  -0.345        -19.013
  -0.343        -19.011
  -0.340        -19.009
  -0.338        -19.008
  -0.336        -19.006
  -0.334        -19.005
  -0.332        -19.003
  -0.330        -19.001
  -0.327        -19.000
  -0.325        -18.998
  -0.323        -18.996
  -0.321        -18.995
  -0.319        -18.993
  -0.316        -18.992
  -0.314        -18.990
  -0.312        -18.989
  -0.310        -18.987
  -0.308        -18.986
  -0.306        -18.985
  -0.303        -18.983
  -0.301        -18.982
  -0.299        -18.980
  -0.297        -18.979
  -0.295        -18.978
  -0.293        -18.977
  -0.290        -18.976
  -0.288        -18.975
  -0.286        -18.974
  -0.284        -18.972
  -0.282        -18.971
  -0.280        -18.970
  -0.277        -18.970
  -0.275        -18.969
  -0.273        -18.968
  -0.271        -18.967
  -0.269        -18.966
  -0.267        -18.965
  -0.264        -18.965
  -0.262        -18.964
  -0.260        -18.963
  -0.258        -18.962
  -0.256        -18.962
  -0.253        -18.961
  -0.251        -18.960
  -0.249        -18.960
  -0.247        -18.959
  -0.245        -18.958
  -0.243        -18.958
  -0.241        -18.957
  -0.238        -18.956
  -0.236        -18.956
  -0.234        -18.955
  -0.232        -18.955
  -0.230        -18.954
  -0.227        -18.954
  -0.225        -18.953
  -0.223        -18.952
  -0.221        -18.952
  -0.219        -18.951
  -0.217        -18.951
  -0.214        -18.951
  -0.212        -18.950
  -0.210        -18.950
  -0.208        -18.950
  -0.206        -18.949
  -0.204        -18.949
  -0.201        -18.949
  -0.199        -18.948
  -0.197        -18.948
  -0.195        -18.948
  -0.193        -18.948
  -0.191        -18.948
  -0.188        -18.948
  -0.186        -18.948
  -0.184        -18.948
  -0.182        -18.947
  -0.180        -18.947
  -0.178        -18.947
  -0.175        -18.947
  -0.173        -18.948
  -0.171        -18.948
  -0.169        -18.948
  -0.167        -18.948
  -0.164        -18.948
  -0.162        -18.948
  -0.160        -18.948
  -0.158        -18.948
  -0.156        -18.949
  -0.154        -18.949
  -0.151        -18.949
  -0.149        -18.950
  -0.147        -18.950
  -0.145        -18.950
  -0.143        -18.951
  -0.141        -18.951
  -0.138        -18.951
  -0.136        -18.952
  -0.134        -18.952
  -0.132        -18.952
  -0.130        -18.953
  -0.128        -18.953
  -0.125        -18.954
  -0.123        -18.954
  -0.121        -18.954
  -0.119        -18.955
  -0.117        -18.955
  -0.115        -18.955
  -0.112        -18.956
  -0.110        -18.956
  -0.108        -18.956
  -0.106        -18.956
  -0.104        -18.957
  -0.102        -18.957
  -0.099        -18.957
  -0.097        -18.957
  -0.095        -18.958
  -0.093        -18.958
  -0.091        -18.958
  -0.089        -18.958
  -0.086        -18.958
  -0.084        -18.958
  -0.082        -18.958
  -0.080        -18.958
  -0.078        -18.958
  -0.075        -18.958
  -0.073        -18.958
  -0.071        -18.959
  -0.069        -18.958
  -0.067        -18.959
  -0.065        -18.959
  -0.063        -18.959
  -0.060        -18.959
  -0.058        -18.959
  -0.056        -18.959
  -0.054        -18.959
  -0.052        -18.959
  -0.049        -18.959
  -0.047        -18.959
  -0.045        -18.960
  -0.043        -18.960
  -0.041        -18.960
  -0.039        -18.960
  -0.036        -18.960
  -0.034        -18.960
  -0.032        -18.960
  -0.030        -18.960
  -0.028        -18.960
  -0.026        -18.961
  -0.023        -18.961
  -0.021        -18.961
  -0.019        -18.961
  -0.017        -18.961
  -0.015        -18.961
  -0.013        -18.961
  -0.010        -18.961
  -0.008        -18.961
  -0.006        -18.962
  -0.004        -18.962
  -0.002        -18.962
   0.000        -18.962
   0.003        -18.962
   0.005        -18.962
   0.007        -18.962
   0.009        -18.962
   0.011        -18.963
   0.013        -18.963
   0.016        -18.963
   0.018        -18.963
   0.020        -18.963
   0.022        -18.963
   0.024        -18.963
   0.027        -18.963
   0.029        -18.963
   0.031        -18.963
   0.033        -18.963
   0.035        -18.963
   0.037        -18.963
   0.040        -18.963
   0.042        -18.963
   0.044        -18.963
   0.046        -18.963
   0.048        -18.964
   0.050        -18.964
   0.053        -18.964
   0.055        -18.964
   0.057        -18.964
   0.059        -18.964
   0.061        -18.964
   0.063        -18.964
   0.066        -18.964
   0.068        -18.964
   0.070        -18.964
   0.072        -18.964
   0.074        -18.964
   0.076        -18.964
   0.079        -18.964
   0.081        -18.964
   0.083        -18.964
   0.085        -18.964
   0.087        -18.964
   0.089        -18.964
   0.092        -18.964
   0.094        -18.964
   0.096        -18.964
   0.098        -18.965
   0.100        -18.965
   0.103        -18.965
   0.105        -18.966
   0.107        -18.966
   0.109        -18.966
   0.111        -18.966
   0.113        -18.967
   0.116        -18.967
   0.118        -18.968
   0.120        -18.968
   0.122        -18.969
   0.124        -18.969
   0.126        -18.970
   0.128        -18.970
   0.131        -18.970
   0.133        -18.971
   0.135        -18.972
   0.137        -18.972
   0.139        -18.972
   0.142        -18.973
   0.144        -18.973
   0.146        -18.974
   0.148        -18.974
   0.150        -18.975
   0.153        -18.975
   0.155        -18.975
   0.157        -18.976
   0.159        -18.976
   0.161        -18.977
   0.163        -18.977
   0.165        -18.978
   0.168        -18.978
   0.170        -18.979
   0.172        -18.979
   0.174        -18.980
   0.176        -18.980
   0.178        -18.980
   0.181        -18.981
   0.183        -18.982
   0.185        -18.982
   0.187        -18.983
   0.189        -18.983
   0.192        -18.984
   0.194        -18.984
   0.196        -18.985
   0.198        -18.985
   0.200        -18.986
   0.202        -18.986
   0.205        -18.987
   0.207        -18.987
   0.209        -18.988
   0.211        -18.989
   0.213        -18.989
   0.215        -18.989
   0.218        -18.990
   0.220        -18.991
   0.222        -18.991
   0.224        -18.992
   0.226        -18.992
   0.229        -18.993
   0.231        -18.993
   0.233        -18.994
   0.235        -18.994
   0.237        -18.995
   0.239        -18.996
   0.241        -18.996
   0.244        -18.997
   0.246        -18.998
   0.248        -18.999
   0.250        -18.999
   0.252        -19.000
   0.254        -19.001
   0.257        -19.001
   0.259        -19.002
   0.261        -19.003
   0.263        -19.003
   0.265        -19.004
   0.267        -19.005
   0.270        -19.006
   0.272        -19.007
   0.274        -19.007
   0.276        -19.008
   0.278        -19.009
   0.281        -19.010
   0.283        -19.010
   0.285        -19.011
   0.287        -19.012
   0.289        -19.013
   0.291        -19.014
   0.293        -19.014
   0.296        -19.015
   0.298        -19.016
   0.300        -19.017
   0.302        -19.018
   0.305        -19.019
   0.307        -19.020
   0.309        -19.021
   0.311        -19.022
   0.313        -19.023
   0.315        -19.024
   0.318        -19.025
   0.320        -19.026
   0.322        -19.027
   0.324        -19.028
   0.326        -19.029
   0.328        -19.030
   0.330        -19.031
   0.333        -19.032
   0.335        -19.033
   0.337        -19.034
   0.339        -19.035
   0.341        -19.036
   0.344        -19.037
   0.346        -19.038
   0.348        -19.039
   0.350        -19.040
   0.352        -19.041
   0.354        -19.042
   0.356        -19.043
   0.359        -19.045
   0.361        -19.046
   0.363        -19.047
   0.365        -19.048
   0.367        -19.049
   0.369        -19.050
   0.372        -19.051
   0.374        -19.053
   0.376        -19.054
   0.378        -19.055
   0.380        -19.056
   0.383        -19.057
   0.385        -19.058
   0.387        -19.059
   0.389        -19.061
   0.391        -19.062
   0.393        -19.063
   0.396        -19.065
   0.398        -19.066
   0.400        -19.067
   0.402        -19.068
   0.404        -19.070
   0.406        -19.071
   0.409        -19.073
   0.411        -19.074
   0.413        -19.076
   0.415        -19.078
   0.417        -19.079
   0.420        -19.081
   0.422        -19.082
   0.424        -19.084
   0.426        -19.085
   0.428        -19.087
   0.430        -19.089
   0.432        -19.091
   0.435        -19.093
   0.437        -19.094
   0.439        -19.096
   0.441        -19.098
   0.443        -19.100
   0.446        -19.101
   0.448        -19.103
   0.450        -19.105
   0.452        -19.107
   0.454        -19.110
   0.456        -19.112
   0.459        -19.114
   0.461        -19.116
   0.463        -19.118
   0.465        -19.120
   0.467        -19.123
   0.469        -19.125
   0.472        -19.127
   0.474        -19.129
   0.476        -19.131
   0.478        -19.133
   0.480        -19.135
   0.482        -19.137
   0.485        -19.139
   0.487        -19.141
   0.489        -19.143
   0.491        -19.143
   0.493        -19.144
   0.495        -19.144
   0.498        -19.145
   0.500        -19.146
   0.502        -19.146
   0.504        -19.147
   0.506        -19.147
   0.510        -19.148
   0.512        -19.148
   0.513        -19.147
   0.515        -19.147
   0.517        -19.146
   0.519        -19.146
   0.522        -19.145
   0.524        -19.145
   0.526        -19.144
   0.528        -19.144
   0.530        -19.143
   0.532        -19.143
   0.535        -19.142
   0.537        -19.141
   0.539        -19.141
   0.541        -19.140
   0.543        -19.140
   0.545        -19.139
   0.548        -19.138
   0.550        -19.138
   0.552        -19.137
   0.554        -19.137
   0.556        -19.136
   0.558        -19.135
   0.561        -19.135
   0.563        -19.134
   0.565        -19.133
   0.567        -19.133
   0.569        -19.132
   0.572        -19.132
   0.574        -19.131
   0.576        -19.131
   0.578        -19.131
   0.580        -19.130
   0.582        -19.130
   0.585        -19.130
   0.587        -19.129
   0.589        -19.129
   0.591        -19.129
   0.593        -19.129
   0.595        -19.128
   0.598        -19.128
   0.600        -19.127
   0.602        -19.127
   0.604        -19.127
   0.606        -19.126
   0.608        -19.126
   0.611        -19.126
   0.613        -19.125
   0.615        -19.125
   0.617        -19.124
   0.619        -19.123
   0.621        -19.123
   0.624        -19.122
   0.626        -19.121
   0.628        -19.121
   0.630        -19.120
   0.632        -19.120
   0.634        -19.119
   0.637        -19.118
   0.639        -19.118
   0.641        -19.117
   0.643        -19.116
   0.645        -19.116
   0.647        -19.115
   0.650        -19.114
   0.652        -19.114
   0.654        -19.113
   0.656        -19.112
   0.658        -19.112
   0.660        -19.111
   0.663        -19.111
   0.665        -19.110
   0.667        -19.109
   0.669        -19.109
   0.671        -19.108
   0.673        -19.107
   0.676        -19.107
   0.678        -19.106
   0.680        -19.106
   0.682        -19.106
   0.684        -19.105
   0.687        -19.105
   0.689        -19.104
   0.691        -19.104
   0.693        -19.104
   0.695        -19.103
   0.697        -19.103
   0.700        -19.103
   0.702        -19.104
   0.704        -19.104
   0.706        -19.105
   0.708        -19.106
   0.710        -19.106
   0.713        -19.106
   0.715        -19.107
   0.717        -19.108
   0.719        -19.108
   0.721        -19.109
   0.723        -19.110
   0.726        -19.111
   0.728        -19.112
   0.730        -19.113
   0.732        -19.114
   0.734        -19.115
   0.736        -19.116
   0.739        -19.117
   0.741        -19.118
   0.743        -19.119
   0.745        -19.120
   0.747        -19.121
   0.750        -19.123
   0.752        -19.123
   0.754        -19.125
   0.756        -19.126
   0.758        -19.127
   0.760        -19.128
   0.762        -19.129
   0.765        -19.130
   0.767        -19.132
   0.769        -19.133
   0.771        -19.134
   0.773        -19.135
   0.776        -19.136
   0.778        -19.138
   0.780        -19.139
   0.782        -19.141
   0.784        -19.142
   0.786        -19.144
   0.789        -19.145
   0.791        -19.147
   0.793        -19.148
   0.795        -19.150
   0.797        -19.152
   0.799        -19.153
   0.802        -19.155
   0.804        -19.157
   0.806        -19.159
   0.808        -19.161
   0.810        -19.163
   0.812        -19.164
   0.815        -19.166
   0.817        -19.168
   0.819        -19.170
   0.821        -19.172
   0.823        -19.174
   0.825        -19.177
   0.828        -19.179
   0.830        -19.181
   0.832        -19.183
   0.834        -19.186
   0.836        -19.188
   0.838        -19.190
   0.841        -19.192
   0.843        -19.195
   0.845        -19.197
   0.847        -19.200
   0.849        -19.202
   0.852        -19.205
   0.854        -19.207
   0.856        -19.210
   0.858        -19.212
   0.860        -19.214
   0.862        -19.217
   0.865        -19.219
   0.867        -19.222
   0.869        -19.225
   0.871        -19.227
   0.873        -19.230
   0.875        -19.233
   0.878        -19.235
   0.880        -19.238
   0.882        -19.240
   0.884        -19.243
   0.886        -19.246
   0.888        -19.249
   0.891        -19.252
   0.893        -19.256
   0.895        -19.259
   0.897        -19.262
   0.899        -19.265
   0.901        -19.269
   0.904        -19.272
   0.906        -19.275
   0.908        -19.279
   0.910        -19.283
   0.912        -19.287
   0.915        -19.291
   0.917        -19.295
   0.919        -19.299
   0.921        -19.303
   0.923        -19.307
   0.925        -19.311
   0.928        -19.315
   0.930        -19.320
   0.932        -19.325
   0.934        -19.329
   0.936        -19.334
   0.938        -19.339
   0.941        -19.344
   0.943        -19.349
   0.945        -19.353
   0.947        -19.358
   0.949        -19.365
   0.951        -19.371
   0.954        -19.378
   0.956        -19.384
   0.958        -19.391
   0.960        -19.397
   0.962        -19.404
   0.964        -19.410
   0.967        -19.417
   0.969        -19.423
   0.971        -19.428
   0.973        -19.433
   0.975        -19.438
   0.977        -19.443
   0.980        -19.448
   0.982        -19.453
   0.984        -19.458
   0.986        -19.464
   0.988        -19.473
   0.990        -19.483
   0.993        -19.489
   0.995        -19.495
   0.997        -19.501
   0.999        -19.506
   1.001        -19.512
   1.004        -19.518
   1.006        -19.524
   1.008        -19.530
   1.010        -19.537
   1.012        -19.548
   1.014        -19.560
   1.017        -19.571
   1.019        -19.583
   1.021        -19.594
   1.023        -19.606
   1.025        -19.617
   1.027        -19.629
   1.030        -19.640
   1.032        -19.655
   1.034        -19.672
   1.036        -19.689
   1.038        -19.705
   1.040        -19.722
   1.043        -19.739
   1.045        -19.755
   1.047        -19.772
   1.049        -19.789
   1.051        -19.807
   1.053        -19.833
   1.056        -19.860
   1.058        -19.888
   1.060        -19.915
   1.062        -19.942
   1.064        -19.969
   1.066        -19.996
   1.069        -20.024
   1.071        -20.051
   1.073        -20.095
   1.075        -20.155
   1.077        -20.216
   1.079        -20.276
   1.082        -20.336
   1.084        -20.397
   1.086        -20.457
   1.088        -20.517
   1.090        -20.578
   1.093        -20.639
   1.095        -20.714
   1.097        -20.792
   1.099        -20.870
   1.101        -20.948
   1.103        -21.027
   1.106        -21.105
   1.108        -21.183
   1.110        -21.261
   1.112        -21.349
   1.114        -21.396
   1.117        -21.400
   1.119        -21.403
   1.121        -21.406
   1.123        -21.409
   1.125        -21.413
   1.127        -21.416
   1.129        -21.419
   1.131        -21.422
   1.134        -21.426
   1.136        -21.429
   1.138        -21.431
   1.140        -21.435
   1.143        -21.437
   1.145        -21.440
   1.147        -21.444
   1.149        -21.446
   1.151        -21.449
   1.153        -21.452
   1.155        -21.455
   1.158        -21.457
   1.160        -21.460
   1.162        -21.463
   1.164        -21.465
   1.166        -21.467
   1.169        -21.470
   1.171        -21.473
   1.173        -21.475
   1.175        -21.478
   1.177        -21.480
   1.180        -21.483
   1.181        -21.485
   1.184        -21.488
   1.186        -21.491
   1.188        -21.493
   1.190        -21.496
   1.192        -21.499
   1.195        -21.501
   1.197        -21.504
   1.199        -21.506
   1.201        -21.509
   1.203        -21.511
   1.205        -21.514
   1.208        -21.517
   1.210        -21.519
   1.212        -21.521
   1.214        -21.524
   1.216        -21.527
   1.218        -21.529
   1.220        -21.531
   1.223        -21.534
   1.225        -21.536
   1.227        -21.539
   1.229        -21.541
   1.232        -21.544
   1.234        -21.546
   1.236        -21.548
   1.238        -21.551
   1.240        -21.552
   1.242        -21.554
   1.245        -21.557
   1.247        -21.558
   1.249        -21.561
   1.251        -21.563
   1.253        -21.565
   1.255        -21.567
   1.258        -21.569
   1.260        -21.571
   1.262        -21.573
   1.264        -21.576
   1.266        -21.578
   1.268        -21.580
   1.270        -21.583
   1.273        -21.585
   1.275        -21.588
   1.277        -21.590
   1.279        -21.592
   1.281        -21.595
   1.284        -21.598
   1.286        -21.600
   1.288        -21.603
   1.290        -21.606
   1.292        -21.609
   1.294        -21.611
   1.297        -21.614
   1.299        -21.616
   1.301        -21.620
   1.303        -21.623
   1.305        -21.626
   1.307        -21.629
   1.310        -21.632
   1.312        -21.635
   1.314        -21.639
   1.316        -21.642
   1.318        -21.645
   1.320        -21.648
   1.323        -21.652
   1.325        -21.655
   1.327        -21.659
   1.329        -21.663
   1.331        -21.666
   1.334        -21.670
   1.336        -21.674
   1.338        -21.678
   1.340        -21.681
   1.342        -21.685
   1.344        -21.689
   1.346        -21.694
   1.349        -21.698
   1.351        -21.702
   1.353        -21.706
   1.355        -21.711
   1.357        -21.715
   1.359        -21.719
   1.362        -21.723
   1.364        -21.728
   1.366        -21.731
   1.368        -21.736
   1.370        -21.739
   1.373        -21.743
   1.375        -21.747
   1.377        -21.751
   1.379        -21.755
   1.381        -21.760
   1.383        -21.763
   1.386        -21.765
   1.388        -21.767
   1.390        -21.769
   1.392        -21.772
   1.394        -21.774
   1.397        -21.776
   1.399        -21.779
   1.401        -21.781
   1.403        -21.784
   1.405        -21.786
   1.407        -21.789
   1.410        -21.791
   1.412        -21.794
   1.414        -21.797
   1.416        -21.800
   1.418        -21.803
   1.420        -21.805
   1.423        -21.808
   1.425        -21.810
   1.427        -21.813
   1.429        -21.816
   1.431        -21.819
   1.433        -21.822
   1.436        -21.825
   1.438        -21.827
   1.440        -21.830
   1.442        -21.833
   1.444        -21.836
   1.446        -21.838
   1.449        -21.841
   1.451        -21.844
   1.453        -21.847
   1.455        -21.849
   1.457        -21.852
   1.460        -21.855
   1.462        -21.858
   1.464        -21.860
   1.466        -21.863
   1.468        -21.865
   1.470        -21.867
   1.472        -21.868
   1.475        -21.870
   1.477        -21.872
   1.479        -21.875
   1.481        -21.876
   1.483        -21.878
   1.486        -21.880
   1.488        -21.881
   1.490        -21.882
   1.492        -21.883
   1.494        -21.884
   1.496        -21.884
   1.498        -21.885
   1.501        -21.886
   1.503        -21.887
   1.505        -21.887
   1.507        -21.887
   1.509        -21.887
   1.512        -21.886
   1.514        -21.885
   1.516        -21.884
   1.518        -21.883
   1.520        -21.882
   1.522        -21.881
   1.525        -21.880
   1.527        -21.879
   1.529        -21.877
   1.531        -21.874
   1.533        -21.871
   1.535        -21.868
   1.538        -21.864
   1.540        -21.861
   1.542        -21.858
   1.544        -21.855
   1.546        -21.852
   1.549        -21.848
   1.551        -21.844
   1.553        -21.840
   1.555        -21.835
   1.557        -21.830
   1.559        -21.826
   1.561        -21.821
   1.564        -21.817
   1.566        -21.812
   1.568        -21.807
   1.570        -21.802
   1.572        -21.796
   1.575        -21.790
   1.577        -21.784
   1.579        -21.777
   1.581        -21.771
   1.583        -21.765
   1.585        -21.758
   1.588        -21.752
   1.590        -21.853
   1.592        -22.108
   1.594        -22.113
   1.596        -22.118
   1.598        -22.123
   1.601        -22.128
   1.603        -22.133
   1.605        -22.138
   1.607        -22.143
   1.609        -22.148
   1.611        -22.153
   1.614        -22.159
   1.616        -22.166
   1.618        -22.172
   1.620        -22.179
   1.622        -22.185
   1.624        -22.192
   1.627        -22.198
   1.629        -22.205
   1.631        -22.211
   1.633        -22.218
   1.635        -22.227
   1.637        -22.235
   1.640        -22.243
   1.642        -22.252
   1.644        -22.260
   1.646        -22.268
   1.648        -22.277
   1.651        -22.285
   1.653        -22.293
   1.655        -22.304
   1.657        -22.315
   1.659        -22.327
   1.661        -22.338
   1.664        -22.350
   1.666        -22.361
   1.668        -22.372
   1.670        -22.384
   1.672        -22.395
   1.674        -22.408
   1.676        -22.425
   1.679        -22.443
   1.681        -22.460
   1.683        -22.478
   1.685        -22.495
   1.687        -22.513
   1.690        -22.531
   1.692        -22.548
   1.694        -22.566
   1.696        -22.595
   1.699        -22.639
   1.701        -22.678
   1.703        -22.713
   1.705        -22.748
   1.707        -22.787
   1.709        -22.825
   1.711        -22.863
   1.714        -22.905
   1.716        -22.919
   1.718        -22.947
   1.720        -22.976
   1.722        -23.011
   1.724        -23.046
   1.727        -23.080
   1.729        -23.115
   1.731        -23.150
   1.733        -23.185
   1.735        -23.220
   1.737        -23.250
   1.739        -23.274
   1.742        -23.297
   1.744        -23.320
   1.746        -23.344
   1.748        -23.367
   1.750        -23.390
   1.753        -23.413
   1.755        -23.437
   1.757        -23.459
   1.759        -23.473
   1.761        -23.484
   1.763        -23.495
   1.766        -23.506
   1.768        -23.518
   1.770        -23.529
   1.772        -23.540
   1.774        -23.551
   1.776        -23.562
   1.779        -23.571
   1.781        -23.576
   1.783        -23.580
   1.785        -23.584
   1.787        -23.588
   1.789        -23.593
   1.792        -23.597
   1.794        -23.601
   1.796        -23.605
   1.798        -23.609
   1.800        -23.612
   1.802        -23.614
   1.805        -23.615
   1.807        -23.617
   1.809        -23.618
   1.811        -23.620
   1.813        -23.622
   1.816        -23.623
   1.818        -23.625
   1.820        -23.626
   1.822        -23.627
   1.824        -23.628
   1.826        -23.628
   1.829        -23.629
   1.831        -23.630
   1.833        -23.631
   1.835        -23.632
   1.837        -23.632
   1.839        -23.633
   1.842        -23.634
   1.844        -23.634
   1.846        -23.635
   1.848        -23.636
   1.850        -23.636
   1.852        -23.637
   1.855        -23.637
   1.857        -23.638
   1.859        -23.639
   1.861        -23.639
   1.863        -23.640
   1.865        -23.640
   1.868        -23.641
   1.870        -23.641
   1.872        -23.642
   1.874        -23.643
   1.876        -23.643
   1.878        -23.644
   1.881        -23.644
   1.883        -23.645
   1.885        -23.645
   1.887        -23.646
   1.889        -23.647
   1.891        -23.647
   1.894        -23.648
   1.896        -23.649
   1.898        -23.649
   1.900        -23.650
   1.902        -23.650
   1.905        -23.651
   1.907        -23.652
   1.909        -23.652
   1.911        -23.653
   1.913        -23.654
   1.915        -23.654
   1.918        -23.655
   1.920        -23.656
   1.922        -23.656
   1.924        -23.657
   1.926        -23.658
   1.928        -23.658
   1.931        -23.659
   1.933        -23.660
   1.935        -23.661
   1.937        -23.661
   1.939        -23.662
   1.941        -23.663
   1.944        -23.663
   1.946        -23.664
   1.948        -23.665
   1.950        -23.666
   1.952        -23.667
   1.954        -23.668
   1.957        -23.669
   1.959        -23.669
   1.961        -23.670
   1.963        -23.671
   1.965        -23.672
   1.967        -23.673
   1.970        -23.674
   1.972        -23.674
   1.974        -23.675
   1.976        -23.676
   1.978        -23.677
   1.980        -23.678
   1.983        -23.679
   1.985        -23.680
   1.987        -23.681
   1.989        -23.682
   1.991        -23.683
   1.993        -23.684
   1.996        -23.685
   1.998        -23.686
   2.000        -23.687
   2.002        -23.688
   2.004        -23.689
   2.007        -23.690
   2.009        -23.691
   2.011        -23.692
   2.013        -23.693
   2.015        -23.694
   2.017        -23.695
   2.020        -23.696
   2.022        -23.697
   2.024        -23.698
   2.026        -23.699
   2.028        -23.700
   2.030        -23.701
   2.033        -23.702
   2.035        -23.703
   2.037        -23.704
   2.039        -23.706
   2.041        -23.707
   2.043        -23.708
   2.046        -23.709
   2.048        -23.710
   2.050        -23.711
   2.052        -23.712
   2.054        -23.713
   2.056        -23.714
   2.059        -23.715
   2.061        -23.717
   2.063        -23.718
   2.065        -23.719
   2.067        -23.720
   2.069        -23.721
   2.072        -23.722
   2.074        -23.723
   2.076        -23.725
   2.078        -23.726
   2.080        -23.727
   2.083        -23.728
   2.085        -23.729
   2.087        -23.731
   2.089        -23.732
   2.091        -23.733
   2.093        -23.734
   2.096        -23.735
   2.098        -23.737
   2.100        -23.738
   2.102        -23.739
   2.104        -23.740
   2.106        -23.742
   2.109        -23.743
   2.111        -23.744
   2.113        -23.745
   2.115        -23.746
   2.117        -23.747
   2.120        -23.748
   2.122        -23.749
   2.124        -23.750
   2.126        -23.752
   2.128        -23.753
   2.130        -23.754
   2.133        -23.755
   2.135        -23.756
   2.137        -23.757
   2.139        -23.758
   2.141        -23.759
   2.143        -23.760
   2.145        -23.761
   2.148        -23.762
   2.150        -23.763
   2.152        -23.764
   2.154        -23.765
   2.157        -23.766
   2.158        -23.767
   2.161        -23.768
   2.163        -23.769
   2.165        -23.770
   2.167        -23.771
   2.169        -23.772
   2.172        -23.773
   2.174        -23.774
   2.176        -23.774
   2.178        -23.775
   2.180        -23.776
   2.183        -23.777
   2.185        -23.778
   2.187        -23.779
   2.189        -23.780
   2.191        -23.781
   2.193        -23.782
   2.195        -23.782
   2.197        -23.783
   2.200        -23.784
   2.202        -23.785
   2.204        -23.786
   2.206        -23.787
   2.208        -23.787
   2.211        -23.788
   2.213        -23.789
   2.215        -23.790
   2.217        -23.791
   2.219        -23.791
   2.221        -23.792
   2.224        -23.793
   2.226        -23.793
   2.228        -23.794
   2.230        -23.795
   2.232        -23.795
   2.235        -23.796
   2.237        -23.797
   2.239        -23.797
   2.241        -23.798
   2.243        -23.799
   2.245        -23.799
   2.247        -23.800
   2.250        -23.800
   2.252        -23.801
   2.254        -23.801
   2.256        -23.802
   2.259        -23.803
   2.261        -23.803
   2.263        -23.803
   2.265        -23.804
   2.267        -23.804
   2.269        -23.805
   2.271        -23.805
   2.274        -23.806
   2.276        -23.806
   2.278        -23.807
   2.280        -23.807
   2.282        -23.807
   2.284        -23.808
   2.287        -23.808
   2.289        -23.808
   2.291        -23.808
   2.293        -23.809
   2.295        -23.809
   2.297        -23.809
   2.299        -23.810
   2.302        -23.810
   2.304        -23.810
   2.306        -23.810
   2.308        -23.810
   2.310        -23.811
   2.313        -23.811
   2.315        -23.811
   2.317        -23.811
   2.319        -23.811
   2.321        -23.811
   2.323        -23.811
   2.326        -23.811
   2.328        -23.811
   2.330        -23.812
   2.332        -23.812
   2.334        -23.812
   2.337        -23.812
   2.339        -23.812
   2.341        -23.812
   2.343        -23.812
   2.345        -23.812
   2.347        -23.812
   2.349        -23.812
   2.352        -23.812
   2.354        -23.812
   2.356        -23.812
   2.358        -23.812
   2.360        -23.812
   2.363        -23.811
   2.365        -23.811
   2.367        -23.811
   2.369        -23.811
   2.371        -23.811
   2.374        -23.811
   2.376        -23.811
   2.378        -23.811
   2.380        -23.811
   2.382        -23.810
   2.384        -23.811
   2.386        -23.811
   2.389        -23.811
   2.391        -23.811
   2.393        -23.811
   2.395        -23.811
   2.397        -23.811
   2.400        -23.811
   2.402        -23.811
   2.404        -23.811
   2.406        -23.812
   2.408        -23.813
   2.410        -23.814
   2.413        -23.814
   2.415        -23.815
   2.417        -23.816
   2.419        -23.816
   2.421        -23.817
   2.423        -23.818
   2.425        -23.818
   2.428        -23.818
   2.430        -23.819
   2.432        -23.819
   2.434        -23.820
   2.436        -23.820
   2.439        -23.821
   2.441        -23.821
   2.443        -23.821
   2.445        -23.822
   2.447        -23.821
   2.449        -23.821
   2.452        -23.821
   2.454        -23.820
   2.456        -23.820
   2.458        -23.820
   2.460        -23.819
   2.462        -23.819
   2.465        -23.819
   2.467        -23.818
   2.469        -23.818
   2.471        -23.817
   2.473        -23.817
   2.475        -23.816
   2.478        -23.816
   2.480        -23.815
   2.482        -23.815
   2.484        -23.814
   2.486        -23.814
   2.489        -23.813
   2.491        -23.813
   2.493        -23.813
   2.495        -23.812
   2.497        -23.812
   2.499        -23.811
   2.502        -23.811
   2.504        -23.810
   2.506        -23.810
   2.508        -23.809
   2.510        -23.809
   2.512        -23.809
   2.514        -23.808
   2.517        -23.808
   2.519        -23.807
   2.521        -23.807
   2.523        -23.806
   2.525        -23.806
   2.528        -23.806
   2.530        -23.805
   2.532        -23.805
   2.534        -23.804
   2.536        -23.804
   2.538        -23.804
   2.541        -23.803
   2.543        -23.803
   2.545        -23.803
   2.547        -23.802
   2.549        -23.802
   2.552        -23.802
   2.554        -23.801
   2.556        -23.801
   2.558        -23.801
   2.560        -23.801
   2.562        -23.801
   2.565        -23.801
   2.567        -23.801
   2.569        -23.800
   2.571        -23.800
   2.573        -23.800
   2.575        -23.800
   2.578        -23.800
   2.580        -23.801
   2.582        -23.801
   2.584        -23.801
   2.586        -23.801
   2.588        -23.801
   2.590        -23.801
   2.593        -23.801
   2.595        -23.802
   2.597        -23.802
   2.599        -23.803
   2.601        -23.803
   2.604        -23.804
   2.606        -23.804
   2.608        -23.805
   2.610        -23.805
   2.612        -23.806
   2.614        -23.807
   2.617        -23.809
   2.619        -23.810
   2.621        -23.811
   2.623        -23.812
   2.625        -23.814
   2.627        -23.815
   2.630        -23.816
   2.632        -23.818
   2.634        -23.820
   2.636        -23.822
   2.638        -23.825
   2.641        -23.828
   2.643        -23.830
   2.645        -23.833
   2.647        -23.835
   2.649        -23.838
   2.651        -23.840
   2.654        -23.843
   2.656        -23.848
   2.658        -23.853
   2.660        -23.857
   2.662        -23.862
   2.664        -23.866
   2.666        -23.870
   2.669        -23.875
   2.671        -23.879
   2.673        -23.884
   2.675        -23.890
   2.677        -23.896
   2.680        -23.903
   2.682        -23.909
   2.684        -23.915
   2.686        -23.922
   2.688        -23.928
   2.690        -23.935
   2.693        -23.941
   2.695        -23.947
   2.697        -23.954
   2.699        -23.960
   2.701        -23.966
   2.703        -23.973
   2.706        -23.979
   2.708        -23.986
   2.710        -23.992
   2.712        -23.999
   2.714        -24.005
   2.716        -24.011
   2.719        -24.016
   2.721        -24.022
   2.723        -24.027
   2.725        -24.033
   2.727        -24.038
   2.729        -24.044
   2.732        -24.049
   2.734        -24.055
   2.736        -24.060
   2.738        -24.065
   2.740        -24.070
   2.743        -24.074
   2.745        -24.079
   2.747        -24.084
   2.749        -24.089
   2.751        -24.094
   2.753        -24.098
   2.756        -24.103
   2.758        -24.108
   2.760        -24.112
   2.762        -24.117
   2.764        -24.121
   2.766        -24.126
   2.769        -24.130
   2.771        -24.134
   2.773        -24.139
   2.775        -24.143
   2.777        -24.148
   2.779        -24.152
   2.782        -24.156
   2.784        -24.160
   2.786        -24.164
   2.788        -24.168
   2.790        -24.172
   2.792        -24.176
   2.795        -24.180
   2.797        -24.184
   2.799        -24.188
   2.801        -24.192
   2.803        -24.195
   2.805        -24.199
   2.808        -24.203
   2.810        -24.207
   2.812        -24.210
   2.814        -24.214
   2.816        -24.217
   2.819        -24.221
   2.821        -24.225
   2.823        -24.228
   2.825        -24.231
   2.827        -24.234
   2.829        -24.238
   2.832        -24.241
   2.834        -24.244
   2.836        -24.247
   2.838        -24.251
   2.840        -24.254
   2.842        -24.257
   2.845        -24.260
   2.847        -24.263
   2.849        -24.266
   2.851        -24.269
   2.853        -24.271
   2.855        -24.274
   2.858        -24.277
   2.860        -24.280
   2.862        -24.282
   2.864        -24.285
   2.866        -24.288
   2.868        -24.290
   2.871        -24.293
   2.873        -24.295
   2.875        -24.298
   2.877        -24.300
   2.879        -24.302
   2.881        -24.305
   2.884        -24.307
   2.886        -24.310
   2.888        -24.312
   2.890        -24.314
   2.892        -24.317
   2.894        -24.319
   2.897        -24.321
   2.899        -24.323
   2.901        -24.326
   2.903        -24.328
   2.905        -24.330
   2.908        -24.332
   2.910        -24.334
   2.912        -24.336
   2.914        -24.338
   2.916        -24.340
   2.918        -24.341
   2.921        -24.343
   2.923        -24.345
   2.925        -24.347
   2.927        -24.348
   2.929        -24.350
   2.931        -24.351
   2.934        -24.353
   2.936        -24.355
   2.938        -24.356
   2.940        -24.358
   2.942        -24.359
   2.944        -24.361
   2.947        -24.362
   2.949        -24.364
   2.951        -24.365
   2.953        -24.366
   2.955        -24.368
   2.957        -24.369
   2.960        -24.370
   2.962        -24.372
   2.964        -24.373
   2.966        -24.374
   2.968        -24.376
   2.970        -24.377
   2.973        -24.378
   2.975        -24.379
   2.977        -24.381
   2.979        -24.382
   2.981        -24.383
   2.984        -24.384
   2.986        -24.386
   2.988        -24.387
   2.990        -24.388
   2.992        -24.389
   2.994        -24.390
   2.997        -24.392
   2.999        -24.393
   3.001        -24.394
   3.003        -24.395
   3.005        -24.396
   3.007        -24.397
   3.010        -24.398
   3.012        -24.400
   3.014        -24.401
   3.016        -24.402
   3.018        -24.403
   3.020        -24.404
   3.023        -24.405
   3.025        -24.406
   3.027        -24.407
   3.029        -24.409
   3.031        -24.410
   3.033        -24.411
   3.036        -24.412
   3.038        -24.413
   3.040        -24.414
   3.042        -24.415
   3.044        -24.416
   3.046        -24.417
   3.049        -24.418
   3.051        -24.419
   3.053        -24.420
   3.055        -24.422
   3.057        -24.422
   3.060        -24.424
   3.062        -24.425
   3.064        -24.426
   3.066        -24.427
   3.068        -24.428
   3.070        -24.429
   3.073        -24.430
   3.075        -24.431
   3.077        -24.432
   3.079        -24.433
   3.081        -24.434
   3.083        -24.435
   3.086        -24.436
   3.088        -24.437
   3.090        -24.438
   3.092        -24.439
   3.094        -24.440
   3.096        -24.441
   3.099        -24.442
   3.101        -24.443
   3.103        -24.444
   3.105        -24.445
   3.107        -24.446
   3.109        -24.447
   3.112        -24.448
   3.114        -24.449
   3.116        -24.450
   3.118        -24.451
   3.120        -24.452
   3.123        -24.453
   3.125        -24.454
   3.127        -24.455
   3.129        -24.456
   3.131        -24.457
   3.133        -24.458
   3.136        -24.459
   3.138        -24.460
   3.140        -24.461
   3.142        -24.462
   3.144        -24.463
   3.146        -24.464
   3.149        -24.465
   3.151        -24.466
   3.153        -24.467
   3.155        -24.468
   3.157        -24.469
   3.159        -24.470
   3.162        -24.471
   3.164        -24.472
   3.166        -24.473
   3.168        -24.474
   3.170        -24.475
   3.172        -24.476
   3.175        -24.477
   3.177        -24.478
   3.179        -24.478
   3.181        -24.480
   3.183        -24.480
   3.185        -24.481
   3.188        -24.483
   3.190        -24.483
   3.192        -24.484
   3.194        -24.485
   3.196        -24.486
   3.199        -24.487
   3.201        -24.488
   3.203        -24.489
   3.205        -24.490
   3.207        -24.491
   3.209        -24.492
   3.212        -24.493
   3.214        -24.494
   3.216        -24.495
   3.218        -24.496
   3.220        -24.496
   3.222        -24.497
   3.225        -24.498
   3.227        -24.499
   3.229        -24.500
   3.231        -24.501
   3.233        -24.502
   3.236        -24.503
   3.237        -24.503
   3.240        -24.504
   3.242        -24.505
   3.244        -24.506
   3.246        -24.507
   3.248        -24.508
   3.251        -24.509
   3.253        -24.509
   3.255        -24.510
   3.257        -24.511
   3.259        -24.512
   3.261        -24.512
   3.263        -24.513
   3.266        -24.514
   3.268        -24.515
   3.270        -24.515
   3.272        -24.516
   3.274        -24.517
   3.277        -24.517
   3.279        -24.518
   3.281        -24.519
   3.283        -24.519
   3.285        -24.520
   3.287        -24.521
   3.290        -24.522
   3.292        -24.522
   3.294        -24.523
   3.296        -24.524
   3.298        -24.525
   3.301        -24.526
   3.303        -24.527
   3.305        -24.528
   3.307        -24.529
   3.309        -24.530
   3.311        -24.531
   3.313        -24.533
   3.316        -24.534
   3.318        -24.535
   3.320        -24.536
   3.322        -24.537
   3.324        -24.539
   3.327        -24.540
   3.329        -24.541
   3.331        -24.542
   3.333        -24.543
   3.335        -24.545
   3.337        -24.546
   3.340        -24.547
   3.342        -24.548
   3.344        -24.549
   3.346        -24.551
   3.348        -24.552
   3.350        -24.553
   3.352        -24.554
   3.355        -24.555
   3.357        -24.556
   3.359        -24.558
   3.361        -24.559
   3.363        -24.560
   3.366        -24.561
   3.368        -24.562
   3.370        -24.563
   3.372        -24.564
   3.374        -24.566
   3.376        -24.567
   3.379        -24.568
   3.381        -24.569
   3.383        -24.570
   3.385        -24.571
   3.387        -24.572
   3.389        -24.573
   3.392        -24.574
   3.394        -24.575
   3.396        -24.576
   3.398        -24.577
   3.400        -24.579
   3.402        -24.580
   3.405        -24.581
   3.407        -24.582
   3.409        -24.583
   3.411        -24.584
   3.413        -24.585
   3.416        -24.586
   3.418        -24.587
   3.420        -24.588
   3.422        -24.589
   3.424        -24.590
   3.426        -24.591
   3.429        -24.592
   3.431        -24.593
   3.433        -24.594
   3.435        -24.596
   3.437        -24.596
   3.439        -24.598
   3.442        -24.598
   3.444        -24.600
   3.446        -24.601
   3.448        -24.602
   3.450        -24.603
   3.452        -24.604
   3.455        -24.605
   3.457        -24.606
   3.459        -24.607
   3.461        -24.608
   3.463        -24.609
   3.466        -24.610
   3.468        -24.611
   3.470        -24.612
   3.472        -24.613
   3.474        -24.614
   3.476        -24.615
   3.478        -24.616
   3.481        -24.617
   3.483        -24.618
   3.485        -24.619
   3.487        -24.620
   3.489        -24.621
   3.492        -24.622
   3.494        -24.623
   3.496        -24.624
   3.498        -24.625
   3.500        -24.626
   3.502        -24.627
   3.505        -24.628
   3.507        -24.629
   3.509        -24.630
   3.511        -24.631
   3.513        -24.632
   3.515        -24.633
   3.518        -24.634
   3.520        -24.635
   3.522        -24.636
   3.524        -24.637
   3.526        -24.638
   3.528        -24.639
   3.531        -24.639
   3.533        -24.640
   3.535        -24.641
   3.537        -24.642
   3.539        -24.643
   3.541        -24.644
   3.544        -24.645
   3.546        -24.646
   3.548        -24.647
   3.550        -24.648
   3.552        -24.649
   3.555        -24.650
   3.557        -24.651
   3.559        -24.651
   3.561        -24.652
   3.563        -24.653
   3.565        -24.654
   3.568        -24.655
   3.570        -24.656
   3.572        -24.657
   3.574        -24.658
   3.576        -24.659
   3.578        -24.660
   3.581        -24.660
   3.583        -24.661
   3.585        -24.662
   3.587        -24.663
   3.589        -24.664
   3.591        -24.665
   3.594        -24.665
   3.596        -24.667
   3.598        -24.667
   3.600        -24.668
   3.602        -24.669
   3.604        -24.670
   3.607        -24.671
   3.609        -24.672
   3.611        -24.672
   3.613        -24.673
   3.615        -24.674
   3.617        -24.675
   3.620        -24.675
   3.622        -24.676
   3.624        -24.677
   3.626        -24.678
   3.628        -24.679
   3.630        -24.679
   3.633        -24.680
   3.635        -24.681
   3.637        -24.682
   3.639        -24.683
   3.641        -24.683
   3.644        -24.684
   3.646        -24.685
   3.648        -24.686
   3.650        -24.687
   3.652        -24.687
   3.654        -24.688
   3.657        -24.689
   3.659        -24.690
   3.661        -24.691
   3.663        -24.691
   3.665        -24.692
   3.667        -24.693
   3.670        -24.694
   3.672        -24.695
   3.674        -24.695
   3.676        -24.696
   3.678        -24.697
   3.680        -24.698
   3.683        -24.699
   3.685        -24.700
   3.687        -24.701
   3.689        -24.702
   3.691        -24.702
   3.693        -24.703
   3.696        -24.704
   3.698        -24.706
   3.700        -24.707
   3.702        -24.708
   3.704        -24.709
   3.706        -24.710
   3.709        -24.711
   3.711        -24.712
   3.713        -24.713
   3.715        -24.714
   3.717        -24.716
   3.719        -24.717
   3.722        -24.719
   3.724        -24.720
   3.726        -24.721
   3.728        -24.722
   3.730        -24.724
   3.733        -24.725
   3.735        -24.726
   3.737        -24.728
   3.739        -24.729
   3.741        -24.730
   3.743        -24.732
   3.746        -24.733
   3.748        -24.734
   3.750        -24.736
   3.752        -24.737
   3.754        -24.739
   3.756        -24.740
   3.759        -24.742
   3.761        -24.743
   3.763        -24.744
   3.765        -24.746
   3.767        -24.748
   3.769        -24.749
   3.772        -24.751
   3.774        -24.752
   3.776        -24.754
   3.778        -24.755
   3.780        -24.757
   3.782        -24.759
   3.785        -24.760
   3.787        -24.762
   3.789        -24.764
   3.791        -24.765
   3.793        -24.767
   3.795        -24.769
   3.798        -24.770
   3.800        -24.772
   3.802        -24.774
   3.804        -24.776
   3.806        -24.778
   3.809        -24.779
   3.811        -24.781
   3.813        -24.783
   3.815        -24.785
   3.817        -24.787
   3.819        -24.788
   3.822        -24.790
   3.824        -24.792
   3.826        -24.794
   3.828        -24.795
   3.830        -24.797
   3.832        -24.799
   3.835        -24.801
   3.837        -24.802
   3.839        -24.804
   3.841        -24.805
   3.843        -24.807
   3.845        -24.808
   3.848        -24.809
   3.850        -24.810
   3.852        -24.811
   3.854        -24.813
   3.856        -24.814
   3.858        -24.815
   3.861        -24.816
   3.863        -24.817
   3.865        -24.818
   3.867        -24.818
   3.869        -24.819
   3.871        -24.820
   3.874        -24.820
   3.876        -24.821
   3.878        -24.822
   3.880        -24.823
   3.882        -24.823
   3.885        -24.824
   3.887        -24.825
   3.889        -24.826
   3.891        -24.826
   3.899        -24.829
   3.912        -24.833
   3.925        -24.837
   3.938        -24.842
   3.951        -24.846
   3.964        -24.850
   3.977        -24.854
   3.990        -24.857
   4.003        -24.861
   4.016        -24.865
   4.029        -24.869
   4.042        -24.873
   4.055        -24.877
   4.068        -24.881
   4.081        -24.884
   4.094        -24.888
   4.107        -24.891
   4.120        -24.895
   4.133        -24.898
   4.146        -24.902
   4.159        -24.904
   4.172        -24.908
   4.185        -24.911
   4.198        -24.914
   4.211        -24.918
   4.224        -24.922
   4.237        -24.926
   4.250        -24.931
   4.263        -24.936
   4.276        -24.941
   4.289        -24.947
   4.302        -24.954
   4.315        -24.961
   4.328        -24.968
   4.341        -24.976
   4.354        -24.984
   4.367        -24.993
   4.380        -25.003
   4.393        -25.012
   4.406        -25.022
   4.420        -25.033
   4.432        -25.044
   4.445        -25.055
   4.459        -25.067
   4.471        -25.078
   4.484        -25.090
   4.498        -25.103
   4.510        -25.115
   4.524        -25.128
   4.537        -25.141
   4.550        -25.154
   4.563        -25.168
   4.576        -25.181
   4.589        -25.195
   4.602        -25.209
   4.615        -25.224
   4.628        -25.238
   4.641        -25.252
   4.654        -25.267
   4.667        -25.282
   4.680        -25.297
   4.693        -25.312
   4.706        -25.327
   4.719        -25.343
   4.732        -25.358
   4.745        -25.374
   4.758        -25.390
   4.771        -25.406
   4.784        -25.422
   4.797        -25.438
   4.810        -25.454
   4.823        -25.471
   4.836        -25.488
   4.849        -25.505
   4.862        -25.522
   4.875        -25.539
   4.888        -25.556
   4.901        -25.573
   4.914        -25.591
   4.927        -25.609
   4.940        -25.627
   4.953        -25.645
   4.966        -25.663
   4.979        -25.681
   4.992        -25.700
   5.005        -25.718
   5.018        -25.737
   5.031        -25.756
   5.044        -25.775
   5.057        -25.794
   5.070        -25.814
   5.083        -25.833
   5.096        -25.853
   5.109        -25.873
   5.123        -25.892
   5.136        -25.912
   5.149        -25.932
   5.162        -25.952
   5.175        -25.972
   5.188        -25.992
   5.201        -26.013
   5.214        -26.033
   5.227        -26.053
   5.240        -26.073
   5.253        -26.093
   5.266        -26.114
   5.279        -26.134
   5.292        -26.155
   5.305        -26.175
   5.318        -26.196
   5.331        -26.216
   5.344        -26.237
   5.357        -26.258
   5.370        -26.279
   5.383        -26.301
   5.396        -26.322
   5.409        -26.344
   5.422        -26.366
   5.435        -26.388
   5.448        -26.410
   5.461        -26.433
   5.474        -26.456
   5.487        -26.479
   5.500        -26.502
   5.513        -26.526
   5.526        -26.550
   5.539        -26.574
   5.552        -26.599
   5.565        -26.624
   5.578        -26.649
   5.591        -26.674
   5.604        -26.700
   5.617        -26.727
   5.630        -26.753
   5.643        -26.780
   5.656        -26.807
   5.669        -26.835
   5.682        -26.864
   5.695        -26.893
   5.708        -26.922
   5.721        -26.951
   5.734        -26.982
   5.748        -27.012
   5.761        -27.044
   5.774        -27.075
   5.787        -27.108
   5.800        -27.141
   5.813        -27.174
   5.826        -27.209
   5.839        -27.244
   5.852        -27.279
   5.865        -27.315
   5.878        -27.352
   5.891        -27.390
   5.904        -27.428
   5.917        -27.467
   5.930        -27.507
   5.943        -27.548
   5.956        -27.589
   5.969        -27.632
   5.982        -27.675
   5.995        -27.720
   6.008        -27.765
   6.021        -27.811
   6.034        -27.858
   6.047        -27.906
   6.060        -27.956
   6.073        -28.006
   6.086        -28.057
   6.099        -28.111
   6.112        -28.164
   6.125        -28.219
   6.138        -28.276
   6.151        -28.333
   6.164        -28.393
   6.177        -28.453
   6.190        -28.515
   6.203        -28.578
   6.216        -28.643
   6.229        -28.710
   6.242        -28.778
   6.255        -28.847
   6.268        -28.919
   6.281        -28.992
   6.294        -29.067
   6.307        -29.143
   6.320        -29.221
   6.334        -29.302
   6.346        -29.385
   6.359        -29.469
   6.372        -29.556
   6.386        -29.646
   6.399        -29.737
   6.411        -29.830
   6.425        -29.926
   6.438        -30.025
   6.451        -30.126
   6.464        -30.229
   6.477        -30.334
   6.490        -30.442
   6.503        -30.555
   6.516        -30.669
   6.529        -30.786
   6.542        -30.907
   6.555        -31.031
   6.568        -31.158
   6.581        -31.288
   6.594        -31.422
   6.607        -31.562
   6.620        -31.703
   6.633        -31.846
   6.646        -31.991
   6.659        -32.144
   6.672        -32.301
   6.685        -32.461
   6.698        -32.626
   6.711        -32.796
   6.724        -32.971
   6.737        -33.149
   6.750        -33.330
   6.763        -33.523
   6.776        -33.725
   6.789        -33.926
   6.802        -34.129
   6.815        -34.339
   6.828        -34.577
   6.841        -34.837
   6.854        -35.136
   6.867        -35.764
   6.880        -36.815
   6.893        -40.530
