# log Energy    log Jnu
# (eV)          (ergs/s/cm2/Hz/Sr)
  -6.864        -20.676
  -6.820        -20.589
  -6.777        -20.502
  -6.734        -20.415
  -6.690        -20.329
  -6.647        -20.242
  -6.603        -20.155
  -6.560        -20.068
  -6.516        -19.981
  -6.473        -19.894
  -6.430        -19.807
  -6.386        -19.721
  -6.343        -19.634
  -6.299        -19.547
  -6.256        -19.460
  -6.212        -19.373
  -6.169        -19.287
  -6.126        -19.200
  -6.082        -19.113
  -6.039        -19.026
  -5.995        -18.939
  -5.952        -18.852
  -5.908        -18.766
  -5.865        -18.679
  -5.822        -18.592
  -5.778        -18.505
  -5.735        -18.419
  -5.691        -18.332
  -5.648        -18.245
  -5.605        -18.158
  -5.561        -18.072
  -5.518        -17.985
  -5.474        -17.898
  -5.431        -17.811
  -5.387        -17.725
  -5.344        -17.638
  -5.300        -17.551
  -5.257        -17.465
  -5.214        -17.378
  -5.170        -17.292
  -5.127        -17.205
  -5.083        -17.119
  -5.040        -17.032
  -4.996        -16.946
  -4.953        -16.860
  -4.910        -16.773
  -4.866        -16.687
  -4.823        -16.601
  -4.779        -16.515
  -4.736        -16.429
  -4.692        -16.343
  -4.649        -16.257
  -4.606        -16.171
  -4.562        -16.086
  -4.519        -16.000
  -4.475        -15.915
  -4.432        -15.830
  -4.388        -15.745
  -4.345        -15.660
  -4.302        -15.576
  -4.258        -15.491
  -4.215        -15.407
  -4.171        -15.324
  -4.128        -15.240
  -4.084        -15.158
  -4.041        -15.075
  -3.998        -14.993
  -3.954        -14.911
  -3.911        -14.831
  -3.867        -14.750
  -3.824        -14.671
  -3.781        -14.592
  -3.737        -14.514
  -3.693        -14.437
  -3.650        -14.361
  -3.607        -14.288
  -3.584        -14.253
  -3.582        -14.243
  -3.580        -14.242
  -3.577        -14.239
  -3.575        -14.236
  -3.573        -14.232
  -3.571        -14.228
  -3.569        -14.224
  -3.567        -14.221
  -3.564        -14.217
  -3.562        -14.214
  -3.560        -14.210
  -3.558        -14.206
  -3.556        -14.203
  -3.554        -14.199
  -3.551        -14.196
  -3.549        -14.192
  -3.547        -14.188
  -3.545        -14.185
  -3.543        -14.181
  -3.540        -14.178
  -3.538        -14.174
  -3.536        -14.171
  -3.534        -14.167
  -3.532        -14.164
  -3.530        -14.160
  -3.528        -14.156
  -3.525        -14.153
  -3.523        -14.149
  -3.521        -14.146
  -3.519        -14.142
  -3.517        -14.139
  -3.514        -14.135
  -3.512        -14.132
  -3.510        -14.128
  -3.508        -14.125
  -3.506        -14.121
  -3.504        -14.118
  -3.502        -14.114
  -3.499        -14.111
  -3.497        -14.107
  -3.495        -14.104
  -3.493        -14.100
  -3.491        -14.097
  -3.488        -14.093
  -3.486        -14.090
  -3.484        -14.086
  -3.482        -14.083
  -3.480        -14.080
  -3.477        -14.076
  -3.475        -14.073
  -3.473        -14.069
  -3.471        -14.066
  -3.469        -14.062
  -3.467        -14.059
  -3.464        -14.056
  -3.462        -14.052
  -3.460        -14.049
  -3.458        -14.045
  -3.456        -14.042
  -3.454        -14.039
  -3.451        -14.035
  -3.449        -14.032
  -3.447        -14.029
  -3.445        -14.025
  -3.443        -14.022
  -3.441        -14.018
  -3.438        -14.015
  -3.436        -14.012
  -3.434        -14.008
  -3.432        -14.005
  -3.430        -14.002
  -3.428        -13.999
  -3.425        -13.995
  -3.423        -13.992
  -3.421        -13.989
  -3.419        -13.985
  -3.417        -13.982
  -3.415        -13.978
  -3.412        -13.975
  -3.410        -13.972
  -3.408        -13.969
  -3.406        -13.965
  -3.404        -13.962
  -3.402        -13.959
  -3.399        -13.956
  -3.397        -13.953
  -3.395        -13.949
  -3.393        -13.946
  -3.391        -13.943
  -3.389        -13.940
  -3.386        -13.936
  -3.384        -13.933
  -3.382        -13.930
  -3.380        -13.927
  -3.378        -13.924
  -3.376        -13.920
  -3.373        -13.917
  -3.371        -13.914
  -3.369        -13.911
  -3.367        -13.908
  -3.365        -13.905
  -3.362        -13.902
  -3.360        -13.899
  -3.358        -13.895
  -3.356        -13.892
  -3.354        -13.889
  -3.352        -13.886
  -3.349        -13.883
  -3.347        -13.880
  -3.345        -13.877
  -3.343        -13.874
  -3.341        -13.871
  -3.339        -13.868
  -3.336        -13.865
  -3.334        -13.862
  -3.332        -13.859
  -3.330        -13.856
  -3.328        -13.853
  -3.326        -13.850
  -3.323        -13.847
  -3.321        -13.844
  -3.319        -13.841
  -3.317        -13.838
  -3.315        -13.835
  -3.313        -13.832
  -3.310        -13.829
  -3.308        -13.826
  -3.306        -13.823
  -3.304        -13.820
  -3.302        -13.817
  -3.300        -13.814
  -3.297        -13.811
  -3.295        -13.808
  -3.293        -13.805
  -3.291        -13.803
  -3.289        -13.800
  -3.287        -13.797
  -3.284        -13.794
  -3.282        -13.791
  -3.280        -13.788
  -3.278        -13.786
  -3.276        -13.783
  -3.273        -13.780
  -3.271        -13.777
  -3.269        -13.774
  -3.267        -13.771
  -3.265        -13.769
  -3.263        -13.766
  -3.260        -13.763
  -3.258        -13.760
  -3.256        -13.758
  -3.254        -13.755
  -3.252        -13.752
  -3.250        -13.750
  -3.247        -13.747
  -3.245        -13.744
  -3.243        -13.742
  -3.241        -13.739
  -3.239        -13.736
  -3.237        -13.734
  -3.234        -13.731
  -3.232        -13.728
  -3.230        -13.726
  -3.228        -13.723
  -3.226        -13.720
  -3.224        -13.718
  -3.221        -13.715
  -3.219        -13.713
  -3.217        -13.710
  -3.215        -13.708
  -3.213        -13.705
  -3.211        -13.703
  -3.208        -13.700
  -3.206        -13.698
  -3.204        -13.695
  -3.202        -13.693
  -3.200        -13.690
  -3.197        -13.688
  -3.195        -13.685
  -3.193        -13.683
  -3.191        -13.680
  -3.189        -13.678
  -3.187        -13.675
  -3.184        -13.673
  -3.182        -13.671
  -3.180        -13.668
  -3.178        -13.666
  -3.176        -13.664
  -3.174        -13.661
  -3.171        -13.659
  -3.169        -13.657
  -3.167        -13.654
  -3.165        -13.652
  -3.163        -13.650
  -3.161        -13.648
  -3.158        -13.645
  -3.156        -13.643
  -3.154        -13.641
  -3.152        -13.639
  -3.150        -13.636
  -3.148        -13.634
  -3.145        -13.632
  -3.143        -13.630
  -3.141        -13.628
  -3.139        -13.626
  -3.137        -13.623
  -3.135        -13.621
  -3.132        -13.619
  -3.130        -13.617
  -3.128        -13.615
  -3.126        -13.613
  -3.124        -13.611
  -3.122        -13.609
  -3.119        -13.607
  -3.117        -13.605
  -3.115        -13.603
  -3.113        -13.601
  -3.111        -13.599
  -3.108        -13.597
  -3.106        -13.595
  -3.104        -13.593
  -3.102        -13.591
  -3.100        -13.589
  -3.098        -13.588
  -3.095        -13.586
  -3.093        -13.584
  -3.091        -13.582
  -3.089        -13.580
  -3.087        -13.578
  -3.085        -13.577
  -3.082        -13.575
  -3.080        -13.573
  -3.078        -13.571
  -3.076        -13.570
  -3.074        -13.568
  -3.072        -13.566
  -3.069        -13.565
  -3.067        -13.563
  -3.065        -13.561
  -3.063        -13.560
  -3.061        -13.558
  -3.059        -13.556
  -3.056        -13.555
  -3.054        -13.553
  -3.052        -13.552
  -3.050        -13.550
  -3.048        -13.549
  -3.046        -13.547
  -3.043        -13.546
  -3.041        -13.544
  -3.039        -13.543
  -3.037        -13.542
  -3.035        -13.540
  -3.032        -13.539
  -3.030        -13.537
  -3.028        -13.536
  -3.026        -13.535
  -3.024        -13.533
  -3.022        -13.532
  -3.019        -13.531
  -3.017        -13.530
  -3.015        -13.528
  -3.013        -13.527
  -3.011        -13.526
  -3.009        -13.525
  -3.006        -13.524
  -3.004        -13.522
  -3.002        -13.521
  -3.000        -13.520
  -2.998        -13.519
  -2.996        -13.518
  -2.993        -13.517
  -2.991        -13.516
  -2.989        -13.515
  -2.987        -13.514
  -2.985        -13.513
  -2.983        -13.512
  -2.980        -13.511
  -2.978        -13.510
  -2.976        -13.509
  -2.974        -13.508
  -2.972        -13.508
  -2.970        -13.507
  -2.967        -13.506
  -2.965        -13.505
  -2.963        -13.505
  -2.961        -13.504
  -2.959        -13.503
  -2.956        -13.503
  -2.954        -13.502
  -2.952        -13.501
  -2.950        -13.500
  -2.948        -13.500
  -2.946        -13.500
  -2.944        -13.499
  -2.941        -13.498
  -2.939        -13.498
  -2.937        -13.497
  -2.935        -13.497
  -2.933        -13.497
  -2.930        -13.496
  -2.928        -13.496
  -2.926        -13.495
  -2.924        -13.495
  -2.922        -13.495
  -2.920        -13.495
  -2.917        -13.494
  -2.915        -13.494
  -2.913        -13.494
  -2.911        -13.494
  -2.909        -13.494
  -2.907        -13.493
  -2.904        -13.493
  -2.902        -13.493
  -2.900        -13.493
  -2.898        -13.493
  -2.896        -13.493
  -2.894        -13.493
  -2.891        -13.493
  -2.889        -13.493
  -2.887        -13.494
  -2.885        -13.494
  -2.883        -13.494
  -2.880        -13.494
  -2.878        -13.494
  -2.876        -13.495
  -2.874        -13.495
  -2.872        -13.495
  -2.870        -13.495
  -2.867        -13.496
  -2.865        -13.496
  -2.863        -13.497
  -2.861        -13.497
  -2.859        -13.498
  -2.857        -13.498
  -2.855        -13.499
  -2.852        -13.499
  -2.850        -13.500
  -2.848        -13.501
  -2.846        -13.501
  -2.843        -13.502
  -2.842        -13.503
  -2.839        -13.504
  -2.837        -13.504
  -2.835        -13.505
  -2.833        -13.506
  -2.831        -13.507
  -2.828        -13.508
  -2.826        -13.509
  -2.824        -13.510
  -2.822        -13.511
  -2.820        -13.512
  -2.817        -13.513
  -2.815        -13.514
  -2.813        -13.515
  -2.811        -13.516
  -2.809        -13.517
  -2.807        -13.519
  -2.805        -13.520
  -2.802        -13.522
  -2.800        -13.523
  -2.798        -13.524
  -2.796        -13.525
  -2.794        -13.527
  -2.792        -13.529
  -2.789        -13.530
  -2.787        -13.532
  -2.785        -13.533
  -2.783        -13.535
  -2.781        -13.537
  -2.779        -13.538
  -2.776        -13.540
  -2.774        -13.542
  -2.772        -13.544
  -2.770        -13.546
  -2.767        -13.548
  -2.765        -13.550
  -2.763        -13.552
  -2.761        -13.554
  -2.759        -13.556
  -2.757        -13.558
  -2.754        -13.560
  -2.753        -13.562
  -2.750        -13.564
  -2.748        -13.567
  -2.746        -13.569
  -2.744        -13.571
  -2.741        -13.574
  -2.739        -13.576
  -2.737        -13.579
  -2.735        -13.581
  -2.733        -13.584
  -2.731        -13.586
  -2.729        -13.589
  -2.726        -13.592
  -2.724        -13.595
  -2.722        -13.597
  -2.720        -13.600
  -2.718        -13.603
  -2.716        -13.606
  -2.713        -13.608
  -2.711        -13.612
  -2.709        -13.615
  -2.707        -13.618
  -2.705        -13.621
  -2.703        -13.624
  -2.700        -13.627
  -2.698        -13.631
  -2.696        -13.634
  -2.694        -13.637
  -2.692        -13.641
  -2.689        -13.644
  -2.687        -13.648
  -2.685        -13.651
  -2.683        -13.655
  -2.681        -13.658
  -2.679        -13.662
  -2.677        -13.666
  -2.674        -13.670
  -2.672        -13.674
  -2.670        -13.678
  -2.668        -13.681
  -2.666        -13.685
  -2.663        -13.690
  -2.661        -13.694
  -2.659        -13.698
  -2.657        -13.702
  -2.655        -13.706
  -2.653        -13.711
  -2.650        -13.715
  -2.648        -13.719
  -2.646        -13.724
  -2.644        -13.728
  -2.642        -13.733
  -2.640        -13.737
  -2.637        -13.742
  -2.635        -13.747
  -2.633        -13.752
  -2.631        -13.756
  -2.629        -13.761
  -2.626        -13.766
  -2.624        -13.771
  -2.622        -13.776
  -2.620        -13.781
  -2.618        -13.787
  -2.616        -13.792
  -2.614        -13.797
  -2.611        -13.803
  -2.609        -13.808
  -2.607        -13.813
  -2.605        -13.819
  -2.603        -13.825
  -2.600        -13.830
  -2.598        -13.836
  -2.596        -13.842
  -2.594        -13.847
  -2.592        -13.853
  -2.590        -13.859
  -2.587        -13.865
  -2.585        -13.871
  -2.583        -13.878
  -2.581        -13.883
  -2.579        -13.890
  -2.577        -13.896
  -2.574        -13.903
  -2.572        -13.909
  -2.570        -13.915
  -2.568        -13.922
  -2.566        -13.929
  -2.564        -13.935
  -2.561        -13.942
  -2.559        -13.949
  -2.557        -13.956
  -2.555        -13.963
  -2.553        -13.970
  -2.551        -13.977
  -2.548        -13.984
  -2.546        -13.991
  -2.544        -13.999
  -2.542        -14.006
  -2.540        -14.013
  -2.538        -14.021
  -2.535        -14.029
  -2.533        -14.036
  -2.531        -14.044
  -2.529        -14.052
  -2.527        -14.060
  -2.525        -14.068
  -2.522        -14.076
  -2.520        -14.084
  -2.518        -14.092
  -2.516        -14.100
  -2.514        -14.108
  -2.511        -14.117
  -2.509        -14.125
  -2.507        -14.134
  -2.505        -14.142
  -2.503        -14.151
  -2.501        -14.160
  -2.498        -14.168
  -2.496        -14.177
  -2.494        -14.186
  -2.492        -14.195
  -2.490        -14.205
  -2.488        -14.214
  -2.485        -14.223
  -2.483        -14.232
  -2.481        -14.242
  -2.479        -14.251
  -2.477        -14.261
  -2.475        -14.270
  -2.472        -14.280
  -2.470        -14.290
  -2.468        -14.300
  -2.466        -14.310
  -2.464        -14.320
  -2.462        -14.330
  -2.459        -14.341
  -2.457        -14.351
  -2.455        -14.361
  -2.453        -14.372
  -2.451        -14.382
  -2.448        -14.393
  -2.446        -14.404
  -2.444        -14.415
  -2.442        -14.426
  -2.440        -14.437
  -2.438        -14.448
  -2.435        -14.459
  -2.433        -14.470
  -2.431        -14.482
  -2.429        -14.493
  -2.427        -14.505
  -2.425        -14.516
  -2.422        -14.528
  -2.420        -14.540
  -2.418        -14.552
  -2.416        -14.564
  -2.414        -14.576
  -2.412        -14.588
  -2.409        -14.601
  -2.407        -14.613
  -2.405        -14.625
  -2.403        -14.638
  -2.401        -14.651
  -2.398        -14.663
  -2.396        -14.676
  -2.394        -14.689
  -2.392        -14.702
  -2.390        -14.715
  -2.388        -14.728
  -2.386        -14.742
  -2.383        -14.756
  -2.381        -14.769
  -2.379        -14.783
  -2.377        -14.796
  -2.375        -14.810
  -2.372        -14.824
  -2.370        -14.838
  -2.368        -14.852
  -2.366        -14.867
  -2.364        -14.881
  -2.362        -14.895
  -2.359        -14.910
  -2.357        -14.925
  -2.355        -14.939
  -2.353        -14.955
  -2.351        -14.970
  -2.349        -14.985
  -2.346        -15.000
  -2.344        -15.015
  -2.342        -15.031
  -2.340        -15.046
  -2.338        -15.062
  -2.336        -15.077
  -2.333        -15.094
  -2.331        -15.110
  -2.329        -15.125
  -2.327        -15.142
  -2.325        -15.158
  -2.323        -15.175
  -2.320        -15.191
  -2.318        -15.208
  -2.316        -15.225
  -2.314        -15.242
  -2.312        -15.259
  -2.309        -15.276
  -2.307        -15.293
  -2.305        -15.310
  -2.303        -15.328
  -2.301        -15.346
  -2.299        -15.363
  -2.297        -15.381
  -2.294        -15.399
  -2.292        -15.417
  -2.290        -15.435
  -2.288        -15.454
  -2.286        -15.472
  -2.283        -15.491
  -2.281        -15.510
  -2.279        -15.528
  -2.277        -15.547
  -2.275        -15.567
  -2.273        -15.586
  -2.270        -15.605
  -2.268        -15.625
  -2.266        -15.644
  -2.264        -15.664
  -2.262        -15.684
  -2.260        -15.704
  -2.257        -15.724
  -2.255        -15.745
  -2.253        -15.765
  -2.251        -15.786
  -2.249        -15.806
  -2.247        -15.827
  -2.244        -15.848
  -2.242        -15.869
  -2.240        -15.890
  -2.238        -15.912
  -2.236        -15.933
  -2.234        -15.955
  -2.231        -15.977
  -2.229        -15.999
  -2.227        -16.021
  -2.225        -16.043
  -2.223        -16.065
  -2.220        -16.088
  -2.218        -16.111
  -2.216        -16.133
  -2.214        -16.156
  -2.212        -16.180
  -2.210        -16.203
  -2.207        -16.226
  -2.205        -16.250
  -2.203        -16.273
  -2.201        -16.297
  -2.199        -16.321
  -2.197        -16.345
  -2.194        -16.370
  -2.192        -16.394
  -2.190        -16.419
  -2.188        -16.443
  -2.186        -16.468
  -2.184        -16.493
  -2.181        -16.519
  -2.179        -16.544
  -2.177        -16.569
  -2.175        -16.595
  -2.173        -16.621
  -2.171        -16.647
  -2.168        -16.673
  -2.166        -16.700
  -2.164        -16.726
  -2.162        -16.753
  -2.160        -16.779
  -2.158        -16.806
  -2.155        -16.834
  -2.153        -16.861
  -2.151        -16.888
  -2.149        -16.916
  -2.147        -16.944
  -2.145        -16.972
  -2.142        -16.999
  -2.140        -17.028
  -2.138        -17.056
  -2.136        -17.085
  -2.134        -17.113
  -2.131        -17.142
  -2.129        -17.171
  -2.127        -17.200
  -2.125        -17.230
  -2.123        -17.259
  -2.121        -17.289
  -2.118        -17.319
  -2.116        -17.348
  -2.114        -17.379
  -2.112        -17.409
  -2.110        -17.439
  -2.108        -17.470
  -2.105        -17.500
  -2.103        -17.531
  -2.101        -17.562
  -2.099        -17.593
  -2.097        -17.624
  -2.095        -17.655
  -2.092        -17.686
  -2.090        -17.717
  -2.088        -17.749
  -2.086        -17.780
  -2.084        -17.812
  -2.082        -17.843
  -2.079        -17.875
  -2.077        -17.906
  -2.075        -17.938
  -2.073        -17.969
  -2.071        -18.001
  -2.069        -18.032
  -2.066        -18.063
  -2.064        -18.095
  -2.062        -18.125
  -2.060        -18.156
  -2.058        -18.187
  -2.056        -18.217
  -2.053        -18.247
  -2.051        -18.277
  -2.049        -18.307
  -2.047        -18.335
  -2.045        -18.364
  -2.043        -18.392
  -2.040        -18.419
  -2.038        -18.447
  -2.036        -18.473
  -2.034        -18.499
  -2.032        -18.523
  -2.029        -18.548
  -2.027        -18.571
  -2.025        -18.593
  -2.023        -18.615
  -2.021        -18.635
  -2.019        -18.655
  -2.016        -18.674
  -2.014        -18.691
  -2.012        -18.708
  -2.010        -18.723
  -2.008        -18.738
  -2.006        -18.751
  -2.003        -18.764
  -2.001        -18.775
  -1.999        -18.785
  -1.997        -18.795
  -1.995        -18.803
  -1.993        -18.811
  -1.990        -18.817
  -1.988        -18.825
  -1.986        -18.834
  -1.984        -18.843
  -1.982        -18.851
  -1.980        -18.858
  -1.977        -18.865
  -1.975        -18.872
  -1.973        -18.878
  -1.971        -18.884
  -1.969        -18.889
  -1.967        -18.894
  -1.964        -18.899
  -1.962        -18.903
  -1.960        -18.907
  -1.958        -18.911
  -1.956        -18.914
  -1.953        -18.917
  -1.951        -18.920
  -1.949        -18.923
  -1.947        -18.926
  -1.945        -18.928
  -1.943        -18.930
  -1.940        -18.933
  -1.938        -18.935
  -1.936        -18.937
  -1.934        -18.938
  -1.932        -18.940
  -1.930        -18.942
  -1.927        -18.943
  -1.925        -18.945
  -1.923        -18.946
  -1.921        -18.948
  -1.919        -18.949
  -1.917        -18.950
  -1.914        -18.951
  -1.912        -18.953
  -1.910        -18.954
  -1.908        -18.955
  -1.906        -18.956
  -1.904        -18.957
  -1.901        -18.958
  -1.899        -18.959
  -1.897        -18.960
  -1.895        -18.961
  -1.893        -18.962
  -1.891        -18.963
  -1.888        -18.964
  -1.886        -18.965
  -1.884        -18.966
  -1.882        -18.967
  -1.880        -18.968
  -1.877        -18.969
  -1.875        -18.970
  -1.873        -18.970
  -1.871        -18.971
  -1.869        -18.972
  -1.867        -18.973
  -1.864        -18.974
  -1.862        -18.975
  -1.860        -18.976
  -1.858        -18.977
  -1.856        -18.977
  -1.853        -18.979
  -1.851        -18.979
  -1.849        -18.980
  -1.847        -18.981
  -1.845        -18.982
  -1.843        -18.983
  -1.841        -18.984
  -1.838        -18.985
  -1.836        -18.986
  -1.834        -18.986
  -1.832        -18.987
  -1.830        -18.988
  -1.828        -18.989
  -1.825        -18.990
  -1.823        -18.991
  -1.821        -18.991
  -1.819        -18.992
  -1.817        -18.993
  -1.815        -18.994
  -1.812        -18.995
  -1.810        -18.996
  -1.808        -18.997
  -1.806        -18.997
  -1.804        -18.998
  -1.801        -18.999
  -1.799        -19.000
  -1.797        -19.001
  -1.795        -19.002
  -1.793        -19.002
  -1.791        -19.004
  -1.788        -19.004
  -1.786        -19.005
  -1.784        -19.006
  -1.782        -19.007
  -1.780        -19.008
  -1.777        -19.009
  -1.775        -19.009
  -1.773        -19.010
  -1.771        -19.011
  -1.769        -19.012
  -1.767        -19.013
  -1.764        -19.014
  -1.763        -19.015
  -1.760        -19.015
  -1.758        -19.016
  -1.756        -19.017
  -1.754        -19.018
  -1.752        -19.019
  -1.749        -19.020
  -1.747        -19.021
  -1.745        -19.022
  -1.743        -19.022
  -1.741        -19.023
  -1.739        -19.024
  -1.736        -19.025
  -1.734        -19.026
  -1.732        -19.027
  -1.730        -19.028
  -1.728        -19.028
  -1.726        -19.029
  -1.723        -19.030
  -1.721        -19.031
  -1.719        -19.032
  -1.717        -19.032
  -1.715        -19.033
  -1.713        -19.034
  -1.710        -19.035
  -1.708        -19.036
  -1.706        -19.037
  -1.704        -19.038
  -1.702        -19.039
  -1.699        -19.039
  -1.697        -19.040
  -1.695        -19.041
  -1.693        -19.042
  -1.691        -19.043
  -1.689        -19.044
  -1.686        -19.045
  -1.684        -19.045
  -1.682        -19.046
  -1.680        -19.047
  -1.678        -19.048
  -1.675        -19.049
  -1.673        -19.050
  -1.671        -19.051
  -1.669        -19.051
  -1.667        -19.052
  -1.665        -19.053
  -1.663        -19.054
  -1.660        -19.055
  -1.658        -19.056
  -1.656        -19.056
  -1.654        -19.057
  -1.652        -19.058
  -1.650        -19.059
  -1.647        -19.060
  -1.645        -19.061
  -1.643        -19.062
  -1.641        -19.062
  -1.639        -19.063
  -1.637        -19.064
  -1.634        -19.065
  -1.632        -19.066
  -1.630        -19.067
  -1.628        -19.067
  -1.626        -19.068
  -1.623        -19.069
  -1.621        -19.070
  -1.619        -19.071
  -1.617        -19.072
  -1.615        -19.073
  -1.613        -19.073
  -1.611        -19.074
  -1.608        -19.075
  -1.606        -19.076
  -1.604        -19.077
  -1.602        -19.078
  -1.600        -19.079
  -1.597        -19.079
  -1.595        -19.080
  -1.593        -19.081
  -1.591        -19.082
  -1.589        -19.083
  -1.587        -19.084
  -1.584        -19.085
  -1.582        -19.085
  -1.580        -19.086
  -1.578        -19.087
  -1.576        -19.088
  -1.573        -19.089
  -1.571        -19.090
  -1.569        -19.090
  -1.567        -19.091
  -1.565        -19.092
  -1.563        -19.093
  -1.561        -19.094
  -1.558        -19.095
  -1.556        -19.095
  -1.554        -19.096
  -1.552        -19.097
  -1.550        -19.098
  -1.547        -19.099
  -1.545        -19.100
  -1.543        -19.101
  -1.541        -19.102
  -1.539        -19.102
  -1.537        -19.103
  -1.534        -19.104
  -1.532        -19.105
  -1.530        -19.106
  -1.528        -19.107
  -1.526        -19.107
  -1.524        -19.108
  -1.522        -19.109
  -1.519        -19.110
  -1.517        -19.111
  -1.515        -19.112
  -1.513        -19.112
  -1.511        -19.113
  -1.508        -19.114
  -1.506        -19.115
  -1.504        -19.116
  -1.502        -19.117
  -1.500        -19.118
  -1.498        -19.118
  -1.495        -19.119
  -1.493        -19.120
  -1.491        -19.121
  -1.489        -19.122
  -1.487        -19.123
  -1.484        -19.124
  -1.482        -19.124
  -1.480        -19.125
  -1.478        -19.126
  -1.476        -19.127
  -1.474        -19.128
  -1.472        -19.129
  -1.469        -19.130
  -1.467        -19.131
  -1.465        -19.131
  -1.463        -19.132
  -1.461        -19.133
  -1.458        -19.134
  -1.456        -19.135
  -1.454        -19.136
  -1.452        -19.137
  -1.450        -19.138
  -1.448        -19.138
  -1.445        -19.139
  -1.443        -19.140
  -1.441        -19.141
  -1.439        -19.142
  -1.437        -19.143
  -1.435        -19.144
  -1.432        -19.144
  -1.430        -19.145
  -1.428        -19.146
  -1.426        -19.147
  -1.424        -19.148
  -1.422        -19.149
  -1.419        -19.150
  -1.417        -19.151
  -1.415        -19.152
  -1.413        -19.152
  -1.411        -19.153
  -1.409        -19.154
  -1.406        -19.155
  -1.404        -19.156
  -1.402        -19.157
  -1.400        -19.158
  -1.398        -19.159
  -1.396        -19.160
  -1.393        -19.161
  -1.391        -19.161
  -1.389        -19.162
  -1.387        -19.163
  -1.385        -19.164
  -1.383        -19.165
  -1.380        -19.166
  -1.378        -19.167
  -1.376        -19.168
  -1.374        -19.169
  -1.372        -19.170
  -1.370        -19.170
  -1.367        -19.171
  -1.365        -19.172
  -1.363        -19.173
  -1.361        -19.174
  -1.359        -19.175
  -1.356        -19.176
  -1.354        -19.177
  -1.352        -19.178
  -1.350        -19.179
  -1.348        -19.180
  -1.346        -19.181
  -1.343        -19.182
  -1.341        -19.183
  -1.339        -19.184
  -1.337        -19.185
  -1.335        -19.186
  -1.333        -19.187
  -1.330        -19.188
  -1.328        -19.189
  -1.326        -19.190
  -1.324        -19.190
  -1.322        -19.191
  -1.320        -19.192
  -1.317        -19.193
  -1.315        -19.195
  -1.313        -19.195
  -1.311        -19.196
  -1.309        -19.197
  -1.307        -19.198
  -1.304        -19.200
  -1.302        -19.200
  -1.300        -19.201
  -1.298        -19.203
  -1.296        -19.204
  -1.293        -19.205
  -1.291        -19.206
  -1.289        -19.207
  -1.287        -19.208
  -1.285        -19.209
  -1.283        -19.210
  -1.280        -19.211
  -1.278        -19.212
  -1.276        -19.213
  -1.274        -19.214
  -1.272        -19.215
  -1.270        -19.216
  -1.267        -19.218
  -1.265        -19.219
  -1.263        -19.220
  -1.261        -19.221
  -1.259        -19.222
  -1.257        -19.223
  -1.254        -19.224
  -1.252        -19.225
  -1.250        -19.227
  -1.248        -19.228
  -1.246        -19.229
  -1.243        -19.230
  -1.241        -19.231
  -1.239        -19.232
  -1.237        -19.234
  -1.235        -19.235
  -1.233        -19.236
  -1.231        -19.237
  -1.228        -19.239
  -1.226        -19.240
  -1.224        -19.241
  -1.222        -19.242
  -1.220        -19.244
  -1.217        -19.245
  -1.215        -19.246
  -1.213        -19.247
  -1.211        -19.248
  -1.209        -19.250
  -1.207        -19.251
  -1.204        -19.252
  -1.202        -19.254
  -1.200        -19.255
  -1.198        -19.256
  -1.196        -19.258
  -1.194        -19.259
  -1.191        -19.261
  -1.189        -19.262
  -1.187        -19.263
  -1.185        -19.265
  -1.183        -19.266
  -1.181        -19.267
  -1.178        -19.269
  -1.176        -19.270
  -1.174        -19.272
  -1.172        -19.273
  -1.170        -19.275
  -1.168        -19.276
  -1.165        -19.277
  -1.163        -19.279
  -1.161        -19.281
  -1.159        -19.282
  -1.157        -19.283
  -1.155        -19.285
  -1.152        -19.287
  -1.150        -19.288
  -1.148        -19.290
  -1.146        -19.291
  -1.144        -19.293
  -1.142        -19.295
  -1.139        -19.296
  -1.137        -19.298
  -1.135        -19.300
  -1.133        -19.301
  -1.131        -19.303
  -1.129        -19.305
  -1.126        -19.306
  -1.124        -19.308
  -1.122        -19.310
  -1.120        -19.311
  -1.118        -19.313
  -1.115        -19.315
  -1.113        -19.316
  -1.111        -19.318
  -1.109        -19.320
  -1.107        -19.321
  -1.105        -19.323
  -1.102        -19.325
  -1.100        -19.327
  -1.098        -19.328
  -1.096        -19.330
  -1.094        -19.332
  -1.092        -19.334
  -1.089        -19.336
  -1.087        -19.337
  -1.085        -19.340
  -1.083        -19.341
  -1.081        -19.343
  -1.079        -19.345
  -1.076        -19.347
  -1.074        -19.349
  -1.072        -19.350
  -1.070        -19.352
  -1.068        -19.354
  -1.066        -19.356
  -1.063        -19.358
  -1.061        -19.360
  -1.059        -19.362
  -1.057        -19.364
  -1.055        -19.366
  -1.052        -19.368
  -1.050        -19.369
  -1.048        -19.372
  -1.046        -19.373
  -1.044        -19.376
  -1.042        -19.377
  -1.039        -19.379
  -1.037        -19.381
  -1.035        -19.383
  -1.033        -19.385
  -1.031        -19.387
  -1.029        -19.389
  -1.026        -19.391
  -1.024        -19.393
  -1.022        -19.395
  -1.020        -19.397
  -1.018        -19.399
  -1.016        -19.401
  -1.013        -19.403
  -1.011        -19.405
  -1.009        -19.407
  -1.007        -19.408
  -1.005        -19.410
  -1.003        -19.412
  -1.000        -19.414
  -0.998        -19.416
  -0.996        -19.418
  -0.994        -19.420
  -0.992        -19.422
  -0.990        -19.424
  -0.987        -19.426
  -0.985        -19.427
  -0.983        -19.429
  -0.981        -19.431
  -0.979        -19.432
  -0.977        -19.434
  -0.974        -19.436
  -0.972        -19.438
  -0.970        -19.440
  -0.968        -19.441
  -0.966        -19.443
  -0.963        -19.445
  -0.961        -19.447
  -0.959        -19.448
  -0.957        -19.450
  -0.955        -19.452
  -0.953        -19.453
  -0.950        -19.455
  -0.948        -19.457
  -0.946        -19.458
  -0.944        -19.460
  -0.942        -19.461
  -0.940        -19.463
  -0.937        -19.464
  -0.935        -19.466
  -0.933        -19.468
  -0.931        -19.469
  -0.929        -19.470
  -0.927        -19.472
  -0.924        -19.473
  -0.922        -19.475
  -0.920        -19.476
  -0.918        -19.477
  -0.916        -19.479
  -0.914        -19.480
  -0.911        -19.481
  -0.909        -19.483
  -0.907        -19.484
  -0.905        -19.485
  -0.903        -19.487
  -0.900        -19.488
  -0.898        -19.489
  -0.896        -19.490
  -0.894        -19.491
  -0.892        -19.493
  -0.890        -19.494
  -0.887        -19.495
  -0.885        -19.496
  -0.883        -19.498
  -0.881        -19.499
  -0.879        -19.499
  -0.877        -19.501
  -0.874        -19.502
  -0.872        -19.502
  -0.870        -19.503
  -0.868        -19.505
  -0.866        -19.506
  -0.864        -19.507
  -0.862        -19.507
  -0.859        -19.509
  -0.857        -19.509
  -0.855        -19.510
  -0.853        -19.511
  -0.851        -19.512
  -0.848        -19.513
  -0.846        -19.514
  -0.844        -19.515
  -0.842        -19.515
  -0.840        -19.516
  -0.838        -19.517
  -0.835        -19.518
  -0.833        -19.518
  -0.831        -19.519
  -0.829        -19.520
  -0.827        -19.520
  -0.825        -19.521
  -0.822        -19.522
  -0.820        -19.523
  -0.818        -19.523
  -0.816        -19.524
  -0.814        -19.524
  -0.812        -19.525
  -0.809        -19.525
  -0.807        -19.526
  -0.805        -19.527
  -0.803        -19.527
  -0.801        -19.527
  -0.799        -19.528
  -0.796        -19.529
  -0.794        -19.529
  -0.792        -19.530
  -0.790        -19.530
  -0.788        -19.530
  -0.785        -19.531
  -0.783        -19.531
  -0.781        -19.531
  -0.779        -19.532
  -0.777        -19.532
  -0.774        -19.533
  -0.772        -19.533
  -0.770        -19.533
  -0.768        -19.534
  -0.766        -19.534
  -0.764        -19.534
  -0.762        -19.534
  -0.759        -19.535
  -0.757        -19.535
  -0.755        -19.535
  -0.753        -19.535
  -0.751        -19.535
  -0.748        -19.536
  -0.746        -19.535
  -0.744        -19.536
  -0.742        -19.536
  -0.740        -19.536
  -0.738        -19.536
  -0.736        -19.536
  -0.733        -19.536
  -0.731        -19.536
  -0.729        -19.536
  -0.727        -19.536
  -0.725        -19.536
  -0.723        -19.536
  -0.720        -19.536
  -0.718        -19.536
  -0.716        -19.536
  -0.714        -19.536
  -0.712        -19.535
  -0.709        -19.535
  -0.707        -19.535
  -0.705        -19.535
  -0.703        -19.535
  -0.701        -19.535
  -0.699        -19.535
  -0.697        -19.534
  -0.694        -19.534
  -0.692        -19.534
  -0.690        -19.534
  -0.688        -19.533
  -0.685        -19.533
  -0.683        -19.533
  -0.681        -19.532
  -0.679        -19.532
  -0.677        -19.532
  -0.675        -19.531
  -0.673        -19.531
  -0.670        -19.531
  -0.668        -19.530
  -0.666        -19.530
  -0.664        -19.529
  -0.662        -19.529
  -0.659        -19.529
  -0.657        -19.528
  -0.655        -19.528
  -0.653        -19.527
  -0.651        -19.527
  -0.649        -19.526
  -0.647        -19.525
  -0.644        -19.525
  -0.642        -19.524
  -0.640        -19.524
  -0.638        -19.523
  -0.636        -19.523
  -0.633        -19.522
  -0.631        -19.521
  -0.629        -19.521
  -0.627        -19.520
  -0.625        -19.519
  -0.623        -19.519
  -0.621        -19.518
  -0.618        -19.518
  -0.616        -19.517
  -0.614        -19.516
  -0.612        -19.515
  -0.610        -19.515
  -0.608        -19.514
  -0.605        -19.513
  -0.603        -19.512
  -0.601        -19.512
  -0.599        -19.511
  -0.596        -19.510
  -0.594        -19.509
  -0.592        -19.508
  -0.590        -19.508
  -0.588        -19.507
  -0.586        -19.506
  -0.584        -19.505
  -0.581        -19.504
  -0.579        -19.503
  -0.577        -19.502
  -0.575        -19.502
  -0.573        -19.501
  -0.571        -19.500
  -0.568        -19.499
  -0.566        -19.498
  -0.564        -19.498
  -0.562        -19.497
  -0.560        -19.496
  -0.557        -19.495
  -0.555        -19.494
  -0.553        -19.493
  -0.551        -19.492
  -0.549        -19.492
  -0.547        -19.491
  -0.544        -19.490
  -0.542        -19.489
  -0.540        -19.488
  -0.538        -19.487
  -0.536        -19.486
  -0.534        -19.485
  -0.531        -19.485
  -0.529        -19.484
  -0.527        -19.483
  -0.525        -19.482
  -0.523        -19.481
  -0.521        -19.480
  -0.518        -19.479
  -0.516        -19.478
  -0.514        -19.478
  -0.512        -19.477
  -0.510        -19.476
  -0.507        -19.475
  -0.505        -19.474
  -0.503        -19.473
  -0.501        -19.472
  -0.499        -19.471
  -0.497        -19.470
  -0.495        -19.469
  -0.492        -19.468
  -0.490        -19.467
  -0.488        -19.467
  -0.486        -19.465
  -0.484        -19.465
  -0.482        -19.464
  -0.479        -19.463
  -0.477        -19.462
  -0.475        -19.461
  -0.473        -19.460
  -0.471        -19.459
  -0.468        -19.458
  -0.466        -19.457
  -0.464        -19.456
  -0.462        -19.455
  -0.460        -19.454
  -0.458        -19.453
  -0.455        -19.452
  -0.453        -19.451
  -0.451        -19.450
  -0.449        -19.449
  -0.447        -19.448
  -0.445        -19.447
  -0.442        -19.446
  -0.440        -19.445
  -0.438        -19.444
  -0.436        -19.443
  -0.434        -19.442
  -0.432        -19.442
  -0.429        -19.441
  -0.427        -19.440
  -0.425        -19.439
  -0.423        -19.438
  -0.421        -19.437
  -0.419        -19.436
  -0.416        -19.435
  -0.414        -19.434
  -0.412        -19.433
  -0.410        -19.432
  -0.408        -19.431
  -0.405        -19.430
  -0.403        -19.429
  -0.401        -19.428
  -0.399        -19.427
  -0.397        -19.426
  -0.395        -19.425
  -0.392        -19.424
  -0.390        -19.423
  -0.388        -19.422
  -0.386        -19.421
  -0.384        -19.420
  -0.382        -19.419
  -0.379        -19.418
  -0.377        -19.417
  -0.375        -19.416
  -0.373        -19.415
  -0.371        -19.414
  -0.369        -19.413
  -0.366        -19.412
  -0.364        -19.411
  -0.362        -19.410
  -0.360        -19.409
  -0.358        -19.408
  -0.356        -19.407
  -0.353        -19.406
  -0.351        -19.405
  -0.349        -19.404
  -0.347        -19.403
  -0.345        -19.402
  -0.343        -19.401
  -0.340        -19.400
  -0.338        -19.399
  -0.336        -19.398
  -0.334        -19.397
  -0.332        -19.396
  -0.330        -19.396
  -0.327        -19.395
  -0.325        -19.394
  -0.323        -19.393
  -0.321        -19.392
  -0.319        -19.391
  -0.316        -19.390
  -0.314        -19.389
  -0.312        -19.388
  -0.310        -19.387
  -0.308        -19.386
  -0.306        -19.385
  -0.303        -19.385
  -0.301        -19.384
  -0.299        -19.383
  -0.297        -19.382
  -0.295        -19.382
  -0.293        -19.381
  -0.290        -19.380
  -0.288        -19.380
  -0.286        -19.379
  -0.284        -19.379
  -0.282        -19.378
  -0.280        -19.377
  -0.277        -19.377
  -0.275        -19.376
  -0.273        -19.376
  -0.271        -19.375
  -0.269        -19.375
  -0.267        -19.374
  -0.264        -19.374
  -0.262        -19.373
  -0.260        -19.373
  -0.258        -19.372
  -0.256        -19.372
  -0.253        -19.372
  -0.251        -19.371
  -0.249        -19.371
  -0.247        -19.370
  -0.245        -19.370
  -0.243        -19.370
  -0.241        -19.369
  -0.238        -19.369
  -0.236        -19.369
  -0.234        -19.369
  -0.232        -19.368
  -0.230        -19.368
  -0.227        -19.368
  -0.225        -19.368
  -0.223        -19.368
  -0.221        -19.367
  -0.219        -19.367
  -0.217        -19.367
  -0.214        -19.367
  -0.212        -19.367
  -0.210        -19.367
  -0.208        -19.367
  -0.206        -19.367
  -0.204        -19.367
  -0.201        -19.367
  -0.199        -19.367
  -0.197        -19.367
  -0.195        -19.367
  -0.193        -19.367
  -0.191        -19.367
  -0.188        -19.367
  -0.186        -19.368
  -0.184        -19.368
  -0.182        -19.368
  -0.180        -19.368
  -0.178        -19.368
  -0.175        -19.369
  -0.173        -19.369
  -0.171        -19.369
  -0.169        -19.369
  -0.167        -19.370
  -0.164        -19.370
  -0.162        -19.370
  -0.160        -19.371
  -0.158        -19.371
  -0.156        -19.371
  -0.154        -19.372
  -0.151        -19.372
  -0.149        -19.373
  -0.147        -19.373
  -0.145        -19.374
  -0.143        -19.374
  -0.141        -19.374
  -0.138        -19.375
  -0.136        -19.375
  -0.134        -19.376
  -0.132        -19.376
  -0.130        -19.377
  -0.128        -19.377
  -0.125        -19.377
  -0.123        -19.378
  -0.121        -19.378
  -0.119        -19.379
  -0.117        -19.379
  -0.115        -19.380
  -0.112        -19.380
  -0.110        -19.380
  -0.108        -19.381
  -0.106        -19.381
  -0.104        -19.382
  -0.102        -19.382
  -0.099        -19.382
  -0.097        -19.382
  -0.095        -19.383
  -0.093        -19.383
  -0.091        -19.384
  -0.089        -19.384
  -0.086        -19.384
  -0.084        -19.384
  -0.082        -19.385
  -0.080        -19.385
  -0.078        -19.385
  -0.075        -19.386
  -0.073        -19.386
  -0.071        -19.386
  -0.069        -19.386
  -0.067        -19.387
  -0.065        -19.387
  -0.063        -19.387
  -0.060        -19.388
  -0.058        -19.388
  -0.056        -19.388
  -0.054        -19.389
  -0.052        -19.389
  -0.049        -19.389
  -0.047        -19.389
  -0.045        -19.390
  -0.043        -19.390
  -0.041        -19.390
  -0.039        -19.391
  -0.036        -19.391
  -0.034        -19.392
  -0.032        -19.392
  -0.030        -19.392
  -0.028        -19.392
  -0.026        -19.393
  -0.023        -19.393
  -0.021        -19.393
  -0.019        -19.394
  -0.017        -19.394
  -0.015        -19.394
  -0.013        -19.395
  -0.010        -19.395
  -0.008        -19.395
  -0.006        -19.396
  -0.004        -19.396
  -0.002        -19.396
   0.000        -19.396
   0.003        -19.397
   0.005        -19.397
   0.007        -19.398
   0.009        -19.398
   0.011        -19.398
   0.013        -19.399
   0.016        -19.399
   0.018        -19.399
   0.020        -19.400
   0.022        -19.400
   0.024        -19.400
   0.027        -19.400
   0.029        -19.401
   0.031        -19.401
   0.033        -19.401
   0.035        -19.402
   0.037        -19.402
   0.040        -19.403
   0.042        -19.403
   0.044        -19.403
   0.046        -19.404
   0.048        -19.404
   0.050        -19.404
   0.053        -19.405
   0.055        -19.405
   0.057        -19.406
   0.059        -19.406
   0.061        -19.406
   0.063        -19.407
   0.066        -19.407
   0.068        -19.407
   0.070        -19.408
   0.072        -19.408
   0.074        -19.409
   0.076        -19.409
   0.079        -19.409
   0.081        -19.410
   0.083        -19.410
   0.085        -19.410
   0.087        -19.410
   0.089        -19.411
   0.092        -19.411
   0.094        -19.411
   0.096        -19.412
   0.098        -19.412
   0.100        -19.412
   0.103        -19.413
   0.105        -19.413
   0.107        -19.413
   0.109        -19.414
   0.111        -19.414
   0.113        -19.414
   0.116        -19.415
   0.118        -19.415
   0.120        -19.416
   0.122        -19.416
   0.124        -19.416
   0.126        -19.417
   0.128        -19.417
   0.131        -19.417
   0.133        -19.418
   0.135        -19.418
   0.137        -19.418
   0.139        -19.419
   0.142        -19.419
   0.144        -19.420
   0.146        -19.420
   0.148        -19.421
   0.150        -19.421
   0.153        -19.421
   0.155        -19.421
   0.157        -19.422
   0.159        -19.422
   0.161        -19.422
   0.163        -19.423
   0.165        -19.423
   0.168        -19.424
   0.170        -19.424
   0.172        -19.424
   0.174        -19.425
   0.176        -19.425
   0.178        -19.425
   0.181        -19.426
   0.183        -19.426
   0.185        -19.427
   0.187        -19.427
   0.189        -19.428
   0.192        -19.428
   0.194        -19.428
   0.196        -19.429
   0.198        -19.429
   0.200        -19.430
   0.202        -19.430
   0.205        -19.430
   0.207        -19.431
   0.209        -19.431
   0.211        -19.432
   0.213        -19.432
   0.215        -19.432
   0.218        -19.433
   0.220        -19.433
   0.222        -19.434
   0.224        -19.434
   0.226        -19.435
   0.229        -19.435
   0.231        -19.436
   0.233        -19.436
   0.235        -19.436
   0.237        -19.437
   0.239        -19.438
   0.241        -19.438
   0.244        -19.438
   0.246        -19.439
   0.248        -19.440
   0.250        -19.440
   0.252        -19.441
   0.254        -19.441
   0.257        -19.442
   0.259        -19.442
   0.261        -19.443
   0.263        -19.444
   0.265        -19.444
   0.267        -19.445
   0.270        -19.446
   0.272        -19.447
   0.274        -19.447
   0.276        -19.448
   0.278        -19.448
   0.281        -19.449
   0.283        -19.450
   0.285        -19.450
   0.287        -19.451
   0.289        -19.452
   0.291        -19.453
   0.293        -19.453
   0.296        -19.454
   0.298        -19.454
   0.300        -19.455
   0.302        -19.456
   0.305        -19.457
   0.307        -19.457
   0.309        -19.458
   0.311        -19.459
   0.313        -19.460
   0.315        -19.461
   0.318        -19.461
   0.320        -19.462
   0.322        -19.463
   0.324        -19.464
   0.326        -19.464
   0.328        -19.465
   0.330        -19.466
   0.333        -19.467
   0.335        -19.468
   0.337        -19.469
   0.339        -19.470
   0.341        -19.470
   0.344        -19.471
   0.346        -19.472
   0.348        -19.473
   0.350        -19.474
   0.352        -19.475
   0.354        -19.476
   0.356        -19.477
   0.359        -19.478
   0.361        -19.479
   0.363        -19.480
   0.365        -19.480
   0.367        -19.482
   0.369        -19.483
   0.372        -19.484
   0.374        -19.485
   0.376        -19.486
   0.378        -19.487
   0.380        -19.488
   0.383        -19.489
   0.385        -19.490
   0.387        -19.492
   0.389        -19.493
   0.391        -19.494
   0.393        -19.495
   0.396        -19.497
   0.398        -19.498
   0.400        -19.500
   0.402        -19.501
   0.404        -19.502
   0.406        -19.504
   0.409        -19.505
   0.411        -19.507
   0.413        -19.509
   0.415        -19.510
   0.417        -19.512
   0.420        -19.514
   0.422        -19.515
   0.424        -19.517
   0.426        -19.518
   0.428        -19.520
   0.430        -19.522
   0.432        -19.523
   0.435        -19.525
   0.437        -19.527
   0.439        -19.528
   0.441        -19.530
   0.443        -19.532
   0.446        -19.534
   0.448        -19.535
   0.450        -19.537
   0.452        -19.539
   0.454        -19.541
   0.456        -19.543
   0.459        -19.545
   0.461        -19.547
   0.463        -19.549
   0.465        -19.551
   0.467        -19.553
   0.469        -19.554
   0.472        -19.556
   0.474        -19.558
   0.476        -19.560
   0.478        -19.561
   0.480        -19.563
   0.482        -19.565
   0.485        -19.567
   0.487        -19.569
   0.489        -19.570
   0.491        -19.571
   0.493        -19.572
   0.495        -19.573
   0.498        -19.574
   0.500        -19.574
   0.502        -19.575
   0.504        -19.576
   0.506        -19.577
   0.510        -19.578
   0.512        -19.578
   0.513        -19.578
   0.515        -19.579
   0.517        -19.579
   0.519        -19.579
   0.522        -19.579
   0.524        -19.580
   0.526        -19.580
   0.528        -19.580
   0.530        -19.580
   0.532        -19.580
   0.535        -19.581
   0.537        -19.581
   0.539        -19.581
   0.541        -19.581
   0.543        -19.582
   0.545        -19.582
   0.548        -19.582
   0.550        -19.582
   0.552        -19.582
   0.554        -19.583
   0.556        -19.583
   0.558        -19.583
   0.561        -19.584
   0.563        -19.584
   0.565        -19.584
   0.567        -19.585
   0.569        -19.585
   0.572        -19.585
   0.574        -19.585
   0.576        -19.586
   0.578        -19.586
   0.580        -19.587
   0.582        -19.587
   0.585        -19.587
   0.587        -19.588
   0.589        -19.588
   0.591        -19.588
   0.593        -19.589
   0.595        -19.589
   0.598        -19.590
   0.600        -19.590
   0.602        -19.590
   0.604        -19.591
   0.606        -19.591
   0.608        -19.591
   0.611        -19.592
   0.613        -19.592
   0.615        -19.593
   0.617        -19.593
   0.619        -19.594
   0.621        -19.594
   0.624        -19.594
   0.626        -19.595
   0.628        -19.595
   0.630        -19.596
   0.632        -19.596
   0.634        -19.597
   0.637        -19.597
   0.639        -19.598
   0.641        -19.598
   0.643        -19.599
   0.645        -19.599
   0.647        -19.600
   0.650        -19.600
   0.652        -19.601
   0.654        -19.601
   0.656        -19.602
   0.658        -19.602
   0.660        -19.603
   0.663        -19.603
   0.665        -19.604
   0.667        -19.604
   0.669        -19.605
   0.671        -19.606
   0.673        -19.606
   0.676        -19.607
   0.678        -19.607
   0.680        -19.608
   0.682        -19.609
   0.684        -19.609
   0.687        -19.610
   0.689        -19.611
   0.691        -19.611
   0.693        -19.612
   0.695        -19.613
   0.697        -19.613
   0.700        -19.614
   0.702        -19.615
   0.704        -19.616
   0.706        -19.617
   0.708        -19.618
   0.710        -19.619
   0.713        -19.620
   0.715        -19.621
   0.717        -19.621
   0.719        -19.623
   0.721        -19.624
   0.723        -19.625
   0.726        -19.626
   0.728        -19.627
   0.730        -19.628
   0.732        -19.630
   0.734        -19.631
   0.736        -19.632
   0.739        -19.633
   0.741        -19.634
   0.743        -19.636
   0.745        -19.637
   0.747        -19.638
   0.750        -19.639
   0.752        -19.641
   0.754        -19.642
   0.756        -19.643
   0.758        -19.645
   0.760        -19.646
   0.762        -19.647
   0.765        -19.649
   0.767        -19.650
   0.769        -19.652
   0.771        -19.653
   0.773        -19.655
   0.776        -19.656
   0.778        -19.658
   0.780        -19.659
   0.782        -19.661
   0.784        -19.663
   0.786        -19.665
   0.789        -19.667
   0.791        -19.668
   0.793        -19.670
   0.795        -19.672
   0.797        -19.674
   0.799        -19.676
   0.802        -19.678
   0.804        -19.680
   0.806        -19.682
   0.808        -19.684
   0.810        -19.687
   0.812        -19.689
   0.815        -19.691
   0.817        -19.693
   0.819        -19.695
   0.821        -19.698
   0.823        -19.700
   0.825        -19.703
   0.828        -19.705
   0.830        -19.708
   0.832        -19.710
   0.834        -19.713
   0.836        -19.715
   0.838        -19.718
   0.841        -19.720
   0.843        -19.723
   0.845        -19.726
   0.847        -19.728
   0.849        -19.731
   0.852        -19.734
   0.854        -19.737
   0.856        -19.740
   0.858        -19.743
   0.860        -19.745
   0.862        -19.748
   0.865        -19.751
   0.867        -19.754
   0.869        -19.757
   0.871        -19.760
   0.873        -19.763
   0.875        -19.766
   0.878        -19.770
   0.880        -19.773
   0.882        -19.776
   0.884        -19.779
   0.886        -19.782
   0.888        -19.786
   0.891        -19.790
   0.893        -19.794
   0.895        -19.797
   0.897        -19.801
   0.899        -19.805
   0.901        -19.808
   0.904        -19.812
   0.906        -19.816
   0.908        -19.821
   0.910        -19.825
   0.912        -19.829
   0.915        -19.834
   0.917        -19.838
   0.919        -19.843
   0.921        -19.847
   0.923        -19.852
   0.925        -19.856
   0.928        -19.861
   0.930        -19.866
   0.932        -19.872
   0.934        -19.877
   0.936        -19.882
   0.938        -19.888
   0.941        -19.893
   0.943        -19.898
   0.945        -19.904
   0.947        -19.909
   0.949        -19.916
   0.951        -19.923
   0.954        -19.930
   0.956        -19.937
   0.958        -19.944
   0.960        -19.951
   0.962        -19.958
   0.964        -19.965
   0.967        -19.972
   0.969        -19.979
   0.971        -19.985
   0.973        -19.991
   0.975        -19.997
   0.977        -20.003
   0.980        -20.009
   0.982        -20.015
   0.984        -20.021
   0.986        -20.027
   0.988        -20.034
   0.990        -20.042
   0.993        -20.049
   0.995        -20.056
   0.997        -20.063
   0.999        -20.070
   1.001        -20.077
   1.004        -20.084
   1.006        -20.091
   1.008        -20.098
   1.010        -20.106
   1.012        -20.118
   1.014        -20.131
   1.017        -20.143
   1.019        -20.155
   1.021        -20.167
   1.023        -20.179
   1.025        -20.192
   1.027        -20.204
   1.030        -20.216
   1.032        -20.232
   1.034        -20.249
   1.036        -20.266
   1.038        -20.283
   1.040        -20.300
   1.043        -20.317
   1.045        -20.335
   1.047        -20.351
   1.049        -20.369
   1.051        -20.387
   1.053        -20.413
   1.056        -20.439
   1.058        -20.466
   1.060        -20.492
   1.062        -20.519
   1.064        -20.545
   1.066        -20.572
   1.069        -20.598
   1.071        -20.625
   1.073        -20.663
   1.075        -20.714
   1.077        -20.765
   1.079        -20.815
   1.082        -20.866
   1.084        -20.917
   1.086        -20.967
   1.088        -21.018
   1.090        -21.069
   1.093        -21.119
   1.095        -21.158
   1.097        -21.195
   1.099        -21.232
   1.101        -21.269
   1.103        -21.306
   1.106        -21.343
   1.108        -21.380
   1.110        -21.417
   1.112        -21.459
   1.114        -21.481
   1.117        -21.484
   1.119        -21.487
   1.121        -21.490
   1.123        -21.493
   1.125        -21.496
   1.127        -21.499
   1.129        -21.501
   1.131        -21.504
   1.134        -21.507
   1.136        -21.510
   1.138        -21.513
   1.140        -21.516
   1.143        -21.518
   1.145        -21.521
   1.147        -21.524
   1.149        -21.526
   1.151        -21.529
   1.153        -21.532
   1.155        -21.535
   1.158        -21.537
   1.160        -21.540
   1.162        -21.543
   1.164        -21.546
   1.166        -21.548
   1.169        -21.551
   1.171        -21.554
   1.173        -21.556
   1.175        -21.559
   1.177        -21.562
   1.180        -21.565
   1.181        -21.567
   1.184        -21.570
   1.186        -21.573
   1.188        -21.576
   1.190        -21.579
   1.192        -21.582
   1.195        -21.585
   1.197        -21.587
   1.199        -21.591
   1.201        -21.593
   1.203        -21.596
   1.205        -21.599
   1.208        -21.602
   1.210        -21.605
   1.212        -21.608
   1.214        -21.611
   1.216        -21.614
   1.218        -21.617
   1.220        -21.620
   1.223        -21.623
   1.225        -21.626
   1.227        -21.629
   1.229        -21.632
   1.232        -21.635
   1.234        -21.638
   1.236        -21.641
   1.238        -21.645
   1.240        -21.647
   1.242        -21.650
   1.245        -21.654
   1.247        -21.656
   1.249        -21.660
   1.251        -21.662
   1.253        -21.665
   1.255        -21.669
   1.258        -21.672
   1.260        -21.675
   1.262        -21.678
   1.264        -21.682
   1.266        -21.685
   1.268        -21.688
   1.270        -21.692
   1.273        -21.695
   1.275        -21.698
   1.277        -21.702
   1.279        -21.705
   1.281        -21.708
   1.284        -21.712
   1.286        -21.715
   1.288        -21.719
   1.290        -21.722
   1.292        -21.726
   1.294        -21.729
   1.297        -21.732
   1.299        -21.736
   1.301        -21.739
   1.303        -21.743
   1.305        -21.747
   1.307        -21.750
   1.310        -21.754
   1.312        -21.757
   1.314        -21.761
   1.316        -21.765
   1.318        -21.768
   1.320        -21.772
   1.323        -21.776
   1.325        -21.779
   1.327        -21.783
   1.329        -21.786
   1.331        -21.790
   1.334        -21.793
   1.336        -21.797
   1.338        -21.801
   1.340        -21.804
   1.342        -21.808
   1.344        -21.812
   1.346        -21.815
   1.349        -21.819
   1.351        -21.823
   1.353        -21.827
   1.355        -21.831
   1.357        -21.835
   1.359        -21.838
   1.362        -21.842
   1.364        -21.845
   1.366        -21.849
   1.368        -21.852
   1.370        -21.856
   1.373        -21.859
   1.375        -21.863
   1.377        -21.866
   1.379        -21.870
   1.381        -21.873
   1.383        -21.877
   1.386        -21.880
   1.388        -21.883
   1.390        -21.886
   1.392        -21.889
   1.394        -21.892
   1.397        -21.895
   1.399        -21.898
   1.401        -21.901
   1.403        -21.905
   1.405        -21.908
   1.407        -21.911
   1.410        -21.915
   1.412        -21.918
   1.414        -21.921
   1.416        -21.925
   1.418        -21.928
   1.420        -21.931
   1.423        -21.935
   1.425        -21.938
   1.427        -21.941
   1.429        -21.945
   1.431        -21.949
   1.433        -21.952
   1.436        -21.956
   1.438        -21.959
   1.440        -21.963
   1.442        -21.966
   1.444        -21.970
   1.446        -21.973
   1.449        -21.977
   1.451        -21.981
   1.453        -21.985
   1.455        -21.989
   1.457        -21.993
   1.460        -21.996
   1.462        -22.000
   1.464        -22.004
   1.466        -22.008
   1.468        -22.012
   1.470        -22.016
   1.472        -22.020
   1.475        -22.024
   1.477        -22.028
   1.479        -22.033
   1.481        -22.037
   1.483        -22.041
   1.486        -22.045
   1.488        -22.049
   1.490        -22.053
   1.492        -22.057
   1.494        -22.062
   1.496        -22.066
   1.498        -22.070
   1.501        -22.074
   1.503        -22.078
   1.505        -22.083
   1.507        -22.087
   1.509        -22.091
   1.512        -22.095
   1.514        -22.100
   1.516        -22.104
   1.518        -22.108
   1.520        -22.113
   1.522        -22.117
   1.525        -22.121
   1.527        -22.126
   1.529        -22.130
   1.531        -22.135
   1.533        -22.139
   1.535        -22.144
   1.538        -22.148
   1.540        -22.153
   1.542        -22.157
   1.544        -22.161
   1.546        -22.166
   1.549        -22.170
   1.551        -22.175
   1.553        -22.180
   1.555        -22.185
   1.557        -22.190
   1.559        -22.194
   1.561        -22.199
   1.564        -22.204
   1.566        -22.209
   1.568        -22.214
   1.570        -22.219
   1.572        -22.224
   1.575        -22.230
   1.577        -22.236
   1.579        -22.242
   1.581        -22.247
   1.583        -22.253
   1.585        -22.259
   1.588        -22.265
   1.590        -22.308
   1.592        -22.391
   1.594        -22.397
   1.596        -22.404
   1.598        -22.411
   1.601        -22.417
   1.603        -22.424
   1.605        -22.431
   1.607        -22.437
   1.609        -22.444
   1.611        -22.451
   1.614        -22.458
   1.616        -22.465
   1.618        -22.473
   1.620        -22.480
   1.622        -22.488
   1.624        -22.495
   1.627        -22.502
   1.629        -22.510
   1.631        -22.517
   1.633        -22.525
   1.635        -22.533
   1.637        -22.541
   1.640        -22.549
   1.642        -22.557
   1.644        -22.565
   1.646        -22.574
   1.648        -22.582
   1.651        -22.590
   1.653        -22.598
   1.655        -22.607
   1.657        -22.616
   1.659        -22.624
   1.661        -22.633
   1.664        -22.642
   1.666        -22.651
   1.668        -22.660
   1.670        -22.669
   1.672        -22.678
   1.674        -22.687
   1.676        -22.696
   1.679        -22.706
   1.681        -22.716
   1.683        -22.726
   1.685        -22.736
   1.687        -22.746
   1.690        -22.756
   1.692        -22.766
   1.694        -22.775
   1.696        -22.787
   1.699        -22.801
   1.701        -22.813
   1.703        -22.825
   1.705        -22.837
   1.707        -22.849
   1.709        -22.862
   1.711        -22.874
   1.714        -22.888
   1.716        -22.896
   1.718        -22.916
   1.720        -22.935
   1.722        -22.959
   1.724        -22.983
   1.727        -23.006
   1.729        -23.030
   1.731        -23.054
   1.733        -23.077
   1.735        -23.101
   1.737        -23.120
   1.739        -23.133
   1.742        -23.144
   1.744        -23.156
   1.746        -23.169
   1.748        -23.181
   1.750        -23.192
   1.753        -23.205
   1.755        -23.217
   1.757        -23.228
   1.759        -23.235
   1.761        -23.240
   1.763        -23.245
   1.766        -23.249
   1.768        -23.255
   1.770        -23.259
   1.772        -23.264
   1.774        -23.269
   1.776        -23.274
   1.779        -23.278
   1.781        -23.281
   1.783        -23.283
   1.785        -23.285
   1.787        -23.287
   1.789        -23.289
   1.792        -23.291
   1.794        -23.293
   1.796        -23.296
   1.798        -23.298
   1.800        -23.299
   1.802        -23.301
   1.805        -23.302
   1.807        -23.303
   1.809        -23.305
   1.811        -23.306
   1.813        -23.307
   1.816        -23.309
   1.818        -23.310
   1.820        -23.311
   1.822        -23.313
   1.824        -23.314
   1.826        -23.315
   1.829        -23.316
   1.831        -23.317
   1.833        -23.318
   1.835        -23.320
   1.837        -23.321
   1.839        -23.322
   1.842        -23.323
   1.844        -23.324
   1.846        -23.325
   1.848        -23.327
   1.850        -23.328
   1.852        -23.329
   1.855        -23.330
   1.857        -23.331
   1.859        -23.333
   1.861        -23.334
   1.863        -23.335
   1.865        -23.336
   1.868        -23.337
   1.870        -23.339
   1.872        -23.340
   1.874        -23.341
   1.876        -23.343
   1.878        -23.344
   1.881        -23.345
   1.883        -23.346
   1.885        -23.348
   1.887        -23.349
   1.889        -23.351
   1.891        -23.352
   1.894        -23.353
   1.896        -23.355
   1.898        -23.356
   1.900        -23.357
   1.902        -23.359
   1.905        -23.360
   1.907        -23.362
   1.909        -23.363
   1.911        -23.365
   1.913        -23.366
   1.915        -23.367
   1.918        -23.369
   1.920        -23.371
   1.922        -23.372
   1.924        -23.373
   1.926        -23.375
   1.928        -23.376
   1.931        -23.378
   1.933        -23.380
   1.935        -23.381
   1.937        -23.383
   1.939        -23.384
   1.941        -23.386
   1.944        -23.387
   1.946        -23.389
   1.948        -23.391
   1.950        -23.392
   1.952        -23.394
   1.954        -23.396
   1.957        -23.397
   1.959        -23.399
   1.961        -23.401
   1.963        -23.402
   1.965        -23.404
   1.967        -23.406
   1.970        -23.407
   1.972        -23.409
   1.974        -23.411
   1.976        -23.413
   1.978        -23.414
   1.980        -23.416
   1.983        -23.418
   1.985        -23.419
   1.987        -23.421
   1.989        -23.423
   1.991        -23.425
   1.993        -23.427
   1.996        -23.428
   1.998        -23.430
   2.000        -23.432
   2.002        -23.434
   2.004        -23.435
   2.007        -23.437
   2.009        -23.439
   2.011        -23.441
   2.013        -23.443
   2.015        -23.445
   2.017        -23.447
   2.020        -23.449
   2.022        -23.451
   2.024        -23.452
   2.026        -23.454
   2.028        -23.456
   2.030        -23.458
   2.033        -23.460
   2.035        -23.462
   2.037        -23.464
   2.039        -23.466
   2.041        -23.467
   2.043        -23.469
   2.046        -23.471
   2.048        -23.473
   2.050        -23.475
   2.052        -23.477
   2.054        -23.479
   2.056        -23.481
   2.059        -23.483
   2.061        -23.485
   2.063        -23.486
   2.065        -23.489
   2.067        -23.490
   2.069        -23.492
   2.072        -23.494
   2.074        -23.496
   2.076        -23.498
   2.078        -23.500
   2.080        -23.502
   2.083        -23.504
   2.085        -23.506
   2.087        -23.508
   2.089        -23.510
   2.091        -23.512
   2.093        -23.514
   2.096        -23.516
   2.098        -23.517
   2.100        -23.520
   2.102        -23.521
   2.104        -23.523
   2.106        -23.525
   2.109        -23.527
   2.111        -23.529
   2.113        -23.531
   2.115        -23.533
   2.117        -23.534
   2.120        -23.537
   2.122        -23.538
   2.124        -23.540
   2.126        -23.542
   2.128        -23.544
   2.130        -23.545
   2.133        -23.547
   2.135        -23.549
   2.137        -23.551
   2.139        -23.553
   2.141        -23.555
   2.143        -23.557
   2.145        -23.558
   2.148        -23.560
   2.150        -23.562
   2.152        -23.564
   2.154        -23.566
   2.157        -23.568
   2.158        -23.569
   2.161        -23.571
   2.163        -23.572
   2.165        -23.574
   2.167        -23.576
   2.169        -23.578
   2.172        -23.580
   2.174        -23.582
   2.176        -23.583
   2.178        -23.585
   2.180        -23.587
   2.183        -23.588
   2.185        -23.590
   2.187        -23.591
   2.189        -23.593
   2.191        -23.595
   2.193        -23.597
   2.195        -23.598
   2.197        -23.599
   2.200        -23.601
   2.202        -23.603
   2.204        -23.605
   2.206        -23.606
   2.208        -23.608
   2.211        -23.609
   2.213        -23.611
   2.215        -23.612
   2.217        -23.614
   2.219        -23.616
   2.221        -23.617
   2.224        -23.618
   2.226        -23.620
   2.228        -23.621
   2.230        -23.623
   2.232        -23.625
   2.235        -23.626
   2.237        -23.628
   2.239        -23.629
   2.241        -23.631
   2.243        -23.632
   2.245        -23.633
   2.247        -23.635
   2.250        -23.636
   2.252        -23.638
   2.254        -23.639
   2.256        -23.641
   2.259        -23.642
   2.261        -23.643
   2.263        -23.645
   2.265        -23.646
   2.267        -23.647
   2.269        -23.648
   2.271        -23.650
   2.274        -23.651
   2.276        -23.652
   2.278        -23.654
   2.280        -23.655
   2.282        -23.657
   2.284        -23.658
   2.287        -23.659
   2.289        -23.661
   2.291        -23.662
   2.293        -23.663
   2.295        -23.664
   2.297        -23.666
   2.299        -23.667
   2.302        -23.668
   2.304        -23.669
   2.306        -23.671
   2.308        -23.672
   2.310        -23.673
   2.313        -23.674
   2.315        -23.675
   2.317        -23.677
   2.319        -23.678
   2.321        -23.679
   2.323        -23.680
   2.326        -23.681
   2.328        -23.683
   2.330        -23.684
   2.332        -23.685
   2.334        -23.686
   2.337        -23.688
   2.339        -23.689
   2.341        -23.690
   2.343        -23.691
   2.345        -23.692
   2.347        -23.694
   2.349        -23.695
   2.352        -23.696
   2.354        -23.697
   2.356        -23.698
   2.358        -23.699
   2.360        -23.701
   2.363        -23.702
   2.365        -23.703
   2.367        -23.705
   2.369        -23.706
   2.371        -23.707
   2.374        -23.708
   2.376        -23.709
   2.378        -23.710
   2.380        -23.712
   2.382        -23.713
   2.384        -23.714
   2.386        -23.715
   2.389        -23.716
   2.391        -23.718
   2.393        -23.719
   2.395        -23.720
   2.397        -23.721
   2.400        -23.723
   2.402        -23.724
   2.404        -23.725
   2.406        -23.726
   2.408        -23.728
   2.410        -23.729
   2.413        -23.730
   2.415        -23.732
   2.417        -23.733
   2.419        -23.734
   2.421        -23.735
   2.423        -23.737
   2.425        -23.738
   2.428        -23.739
   2.430        -23.740
   2.432        -23.741
   2.434        -23.743
   2.436        -23.744
   2.439        -23.745
   2.441        -23.746
   2.443        -23.748
   2.445        -23.749
   2.447        -23.750
   2.449        -23.751
   2.452        -23.753
   2.454        -23.754
   2.456        -23.755
   2.458        -23.756
   2.460        -23.757
   2.462        -23.759
   2.465        -23.760
   2.467        -23.761
   2.469        -23.763
   2.471        -23.764
   2.473        -23.766
   2.475        -23.767
   2.478        -23.769
   2.480        -23.770
   2.482        -23.771
   2.484        -23.773
   2.486        -23.774
   2.489        -23.776
   2.491        -23.778
   2.493        -23.780
   2.495        -23.781
   2.497        -23.783
   2.499        -23.785
   2.502        -23.787
   2.504        -23.788
   2.506        -23.790
   2.508        -23.792
   2.510        -23.794
   2.512        -23.796
   2.514        -23.798
   2.517        -23.800
   2.519        -23.803
   2.521        -23.805
   2.523        -23.807
   2.525        -23.809
   2.528        -23.811
   2.530        -23.814
   2.532        -23.816
   2.534        -23.819
   2.536        -23.821
   2.538        -23.824
   2.541        -23.827
   2.543        -23.829
   2.545        -23.832
   2.547        -23.834
   2.549        -23.837
   2.552        -23.840
   2.554        -23.843
   2.556        -23.846
   2.558        -23.849
   2.560        -23.852
   2.562        -23.855
   2.565        -23.858
   2.567        -23.861
   2.569        -23.864
   2.571        -23.867
   2.573        -23.871
   2.575        -23.874
   2.578        -23.878
   2.580        -23.881
   2.582        -23.884
   2.584        -23.888
   2.586        -23.891
   2.588        -23.895
   2.590        -23.898
   2.593        -23.902
   2.595        -23.906
   2.597        -23.910
   2.599        -23.914
   2.601        -23.918
   2.604        -23.922
   2.606        -23.925
   2.608        -23.929
   2.610        -23.933
   2.612        -23.937
   2.614        -23.941
   2.617        -23.946
   2.619        -23.950
   2.621        -23.954
   2.623        -23.958
   2.625        -23.963
   2.627        -23.967
   2.630        -23.972
   2.632        -23.976
   2.634        -23.980
   2.636        -23.985
   2.638        -23.990
   2.641        -23.994
   2.643        -23.999
   2.645        -24.003
   2.647        -24.008
   2.649        -24.013
   2.651        -24.017
   2.654        -24.022
   2.656        -24.027
   2.658        -24.032
   2.660        -24.037
   2.662        -24.042
   2.664        -24.047
   2.666        -24.052
   2.669        -24.057
   2.671        -24.061
   2.673        -24.066
   2.675        -24.071
   2.677        -24.076
   2.680        -24.081
   2.682        -24.086
   2.684        -24.091
   2.686        -24.097
   2.688        -24.101
   2.690        -24.106
   2.693        -24.112
   2.695        -24.116
   2.697        -24.121
   2.699        -24.125
   2.701        -24.130
   2.703        -24.134
   2.706        -24.139
   2.708        -24.143
   2.710        -24.148
   2.712        -24.152
   2.714        -24.157
   2.716        -24.161
   2.719        -24.165
   2.721        -24.168
   2.723        -24.172
   2.725        -24.176
   2.727        -24.179
   2.729        -24.183
   2.732        -24.187
   2.734        -24.191
   2.736        -24.194
   2.738        -24.198
   2.740        -24.201
   2.743        -24.204
   2.745        -24.207
   2.747        -24.210
   2.749        -24.213
   2.751        -24.217
   2.753        -24.220
   2.756        -24.223
   2.758        -24.226
   2.760        -24.229
   2.762        -24.231
   2.764        -24.234
   2.766        -24.237
   2.769        -24.240
   2.771        -24.243
   2.773        -24.246
   2.775        -24.249
   2.777        -24.251
   2.779        -24.254
   2.782        -24.256
   2.784        -24.259
   2.786        -24.261
   2.788        -24.264
   2.790        -24.266
   2.792        -24.269
   2.795        -24.271
   2.797        -24.274
   2.799        -24.276
   2.801        -24.278
   2.803        -24.280
   2.805        -24.283
   2.808        -24.285
   2.810        -24.287
   2.812        -24.289
   2.814        -24.292
   2.816        -24.294
   2.819        -24.296
   2.821        -24.298
   2.823        -24.300
   2.825        -24.302
   2.827        -24.304
   2.829        -24.306
   2.832        -24.308
   2.834        -24.310
   2.836        -24.312
   2.838        -24.314
   2.840        -24.316
   2.842        -24.317
   2.845        -24.319
   2.847        -24.321
   2.849        -24.323
   2.851        -24.324
   2.853        -24.326
   2.855        -24.327
   2.858        -24.329
   2.860        -24.331
   2.862        -24.333
   2.864        -24.334
   2.866        -24.336
   2.868        -24.337
   2.871        -24.339
   2.873        -24.340
   2.875        -24.341
   2.877        -24.343
   2.879        -24.345
   2.881        -24.346
   2.884        -24.348
   2.886        -24.349
   2.888        -24.350
   2.890        -24.352
   2.892        -24.353
   2.894        -24.355
   2.897        -24.356
   2.899        -24.357
   2.901        -24.359
   2.903        -24.360
   2.905        -24.361
   2.908        -24.362
   2.910        -24.364
   2.912        -24.365
   2.914        -24.366
   2.916        -24.367
   2.918        -24.369
   2.921        -24.370
   2.923        -24.371
   2.925        -24.373
   2.927        -24.373
   2.929        -24.374
   2.931        -24.375
   2.934        -24.377
   2.936        -24.378
   2.938        -24.379
   2.940        -24.380
   2.942        -24.381
   2.944        -24.382
   2.947        -24.383
   2.949        -24.384
   2.951        -24.385
   2.953        -24.386
   2.955        -24.387
   2.957        -24.388
   2.960        -24.389
   2.962        -24.390
   2.964        -24.391
   2.966        -24.392
   2.968        -24.393
   2.970        -24.394
   2.973        -24.395
   2.975        -24.396
   2.977        -24.397
   2.979        -24.398
   2.981        -24.399
   2.984        -24.400
   2.986        -24.401
   2.988        -24.402
   2.990        -24.403
   2.992        -24.404
   2.994        -24.405
   2.997        -24.406
   2.999        -24.407
   3.001        -24.408
   3.003        -24.409
   3.005        -24.410
   3.007        -24.411
   3.010        -24.412
   3.012        -24.413
   3.014        -24.414
   3.016        -24.415
   3.018        -24.416
   3.020        -24.417
   3.023        -24.418
   3.025        -24.419
   3.027        -24.420
   3.029        -24.421
   3.031        -24.422
   3.033        -24.423
   3.036        -24.423
   3.038        -24.425
   3.040        -24.425
   3.042        -24.427
   3.044        -24.428
   3.046        -24.428
   3.049        -24.430
   3.051        -24.430
   3.053        -24.431
   3.055        -24.432
   3.057        -24.433
   3.060        -24.434
   3.062        -24.435
   3.064        -24.436
   3.066        -24.437
   3.068        -24.438
   3.070        -24.439
   3.073        -24.440
   3.075        -24.441
   3.077        -24.442
   3.079        -24.443
   3.081        -24.444
   3.083        -24.445
   3.086        -24.446
   3.088        -24.447
   3.090        -24.448
   3.092        -24.449
   3.094        -24.450
   3.096        -24.451
   3.099        -24.452
   3.101        -24.452
   3.103        -24.453
   3.105        -24.455
   3.107        -24.455
   3.109        -24.456
   3.112        -24.457
   3.114        -24.458
   3.116        -24.459
   3.118        -24.460
   3.120        -24.461
   3.123        -24.462
   3.125        -24.463
   3.127        -24.464
   3.129        -24.465
   3.131        -24.466
   3.133        -24.467
   3.136        -24.468
   3.138        -24.469
   3.140        -24.469
   3.142        -24.471
   3.144        -24.471
   3.146        -24.472
   3.149        -24.473
   3.151        -24.474
   3.153        -24.475
   3.155        -24.476
   3.157        -24.477
   3.159        -24.478
   3.162        -24.479
   3.164        -24.480
   3.166        -24.481
   3.168        -24.482
   3.170        -24.483
   3.172        -24.484
   3.175        -24.485
   3.177        -24.486
   3.179        -24.487
   3.181        -24.488
   3.183        -24.489
   3.185        -24.490
   3.188        -24.491
   3.190        -24.492
   3.192        -24.493
   3.194        -24.494
   3.196        -24.495
   3.199        -24.496
   3.201        -24.497
   3.203        -24.498
   3.205        -24.499
   3.207        -24.500
   3.209        -24.501
   3.212        -24.502
   3.214        -24.503
   3.216        -24.504
   3.218        -24.505
   3.220        -24.506
   3.222        -24.507
   3.225        -24.508
   3.227        -24.509
   3.229        -24.510
   3.231        -24.511
   3.233        -24.512
   3.236        -24.513
   3.237        -24.514
   3.240        -24.515
   3.242        -24.516
   3.244        -24.517
   3.246        -24.518
   3.248        -24.519
   3.251        -24.520
   3.253        -24.521
   3.255        -24.522
   3.257        -24.523
   3.259        -24.524
   3.261        -24.525
   3.263        -24.526
   3.266        -24.527
   3.268        -24.528
   3.270        -24.529
   3.272        -24.530
   3.274        -24.531
   3.277        -24.532
   3.279        -24.533
   3.281        -24.534
   3.283        -24.534
   3.285        -24.536
   3.287        -24.537
   3.290        -24.538
   3.292        -24.538
   3.294        -24.540
   3.296        -24.540
   3.298        -24.541
   3.301        -24.543
   3.303        -24.543
   3.305        -24.545
   3.307        -24.546
   3.309        -24.547
   3.311        -24.548
   3.313        -24.549
   3.316        -24.550
   3.318        -24.551
   3.320        -24.552
   3.322        -24.553
   3.324        -24.554
   3.327        -24.555
   3.329        -24.556
   3.331        -24.557
   3.333        -24.558
   3.335        -24.559
   3.337        -24.560
   3.340        -24.561
   3.342        -24.562
   3.344        -24.563
   3.346        -24.564
   3.348        -24.565
   3.350        -24.566
   3.352        -24.567
   3.355        -24.568
   3.357        -24.569
   3.359        -24.570
   3.361        -24.571
   3.363        -24.572
   3.366        -24.573
   3.368        -24.574
   3.370        -24.575
   3.372        -24.576
   3.374        -24.577
   3.376        -24.578
   3.379        -24.579
   3.381        -24.580
   3.383        -24.581
   3.385        -24.582
   3.387        -24.583
   3.389        -24.584
   3.392        -24.585
   3.394        -24.586
   3.396        -24.587
   3.398        -24.588
   3.400        -24.589
   3.402        -24.590
   3.405        -24.591
   3.407        -24.592
   3.409        -24.593
   3.411        -24.594
   3.413        -24.595
   3.416        -24.596
   3.418        -24.597
   3.420        -24.598
   3.422        -24.599
   3.424        -24.600
   3.426        -24.600
   3.429        -24.601
   3.431        -24.603
   3.433        -24.603
   3.435        -24.604
   3.437        -24.605
   3.439        -24.606
   3.442        -24.607
   3.444        -24.608
   3.446        -24.609
   3.448        -24.610
   3.450        -24.611
   3.452        -24.612
   3.455        -24.613
   3.457        -24.614
   3.459        -24.615
   3.461        -24.616
   3.463        -24.617
   3.466        -24.618
   3.468        -24.619
   3.470        -24.620
   3.472        -24.621
   3.474        -24.622
   3.476        -24.623
   3.478        -24.623
   3.481        -24.624
   3.483        -24.625
   3.485        -24.626
   3.487        -24.627
   3.489        -24.628
   3.492        -24.629
   3.494        -24.630
   3.496        -24.631
   3.498        -24.632
   3.500        -24.633
   3.502        -24.634
   3.505        -24.635
   3.507        -24.636
   3.509        -24.637
   3.511        -24.637
   3.513        -24.638
   3.515        -24.639
   3.518        -24.640
   3.520        -24.641
   3.522        -24.642
   3.524        -24.643
   3.526        -24.644
   3.528        -24.645
   3.531        -24.646
   3.533        -24.647
   3.535        -24.648
   3.537        -24.649
   3.539        -24.650
   3.541        -24.650
   3.544        -24.651
   3.546        -24.652
   3.548        -24.653
   3.550        -24.654
   3.552        -24.655
   3.555        -24.656
   3.557        -24.657
   3.559        -24.658
   3.561        -24.659
   3.563        -24.660
   3.565        -24.661
   3.568        -24.662
   3.570        -24.663
   3.572        -24.664
   3.574        -24.665
   3.576        -24.665
   3.578        -24.666
   3.581        -24.667
   3.583        -24.668
   3.585        -24.669
   3.587        -24.670
   3.589        -24.671
   3.591        -24.672
   3.594        -24.673
   3.596        -24.674
   3.598        -24.675
   3.600        -24.676
   3.602        -24.677
   3.604        -24.678
   3.607        -24.679
   3.609        -24.680
   3.611        -24.681
   3.613        -24.681
   3.615        -24.682
   3.617        -24.683
   3.620        -24.684
   3.622        -24.685
   3.624        -24.686
   3.626        -24.687
   3.628        -24.688
   3.630        -24.689
   3.633        -24.690
   3.635        -24.691
   3.637        -24.692
   3.639        -24.693
   3.641        -24.694
   3.644        -24.695
   3.646        -24.696
   3.648        -24.697
   3.650        -24.698
   3.652        -24.699
   3.654        -24.700
   3.657        -24.701
   3.659        -24.702
   3.661        -24.703
   3.663        -24.705
   3.665        -24.706
   3.667        -24.706
   3.670        -24.708
   3.672        -24.709
   3.674        -24.710
   3.676        -24.711
   3.678        -24.712
   3.680        -24.713
   3.683        -24.714
   3.685        -24.715
   3.687        -24.716
   3.689        -24.717
   3.691        -24.718
   3.693        -24.719
   3.696        -24.720
   3.698        -24.722
   3.700        -24.723
   3.702        -24.724
   3.704        -24.725
   3.706        -24.726
   3.709        -24.727
   3.711        -24.728
   3.713        -24.729
   3.715        -24.730
   3.717        -24.732
   3.719        -24.733
   3.722        -24.734
   3.724        -24.735
   3.726        -24.736
   3.728        -24.737
   3.730        -24.738
   3.733        -24.740
   3.735        -24.741
   3.737        -24.742
   3.739        -24.743
   3.741        -24.744
   3.743        -24.745
   3.746        -24.747
   3.748        -24.748
   3.750        -24.749
   3.752        -24.750
   3.754        -24.751
   3.756        -24.753
   3.759        -24.754
   3.761        -24.755
   3.763        -24.756
   3.765        -24.757
   3.767        -24.759
   3.769        -24.760
   3.772        -24.761
   3.774        -24.762
   3.776        -24.763
   3.778        -24.765
   3.780        -24.766
   3.782        -24.767
   3.785        -24.768
   3.787        -24.769
   3.789        -24.771
   3.791        -24.772
   3.793        -24.773
   3.795        -24.774
   3.798        -24.776
   3.800        -24.777
   3.802        -24.778
   3.804        -24.779
   3.806        -24.781
   3.809        -24.782
   3.811        -24.783
   3.813        -24.784
   3.815        -24.786
   3.817        -24.787
   3.819        -24.788
   3.822        -24.789
   3.824        -24.790
   3.826        -24.792
   3.828        -24.793
   3.830        -24.794
   3.832        -24.795
   3.835        -24.796
   3.837        -24.797
   3.839        -24.798
   3.841        -24.799
   3.843        -24.800
   3.845        -24.801
   3.848        -24.802
   3.850        -24.803
   3.852        -24.804
   3.854        -24.804
   3.856        -24.805
   3.858        -24.806
   3.861        -24.807
   3.863        -24.808
   3.865        -24.808
   3.867        -24.809
   3.869        -24.810
   3.871        -24.810
   3.874        -24.811
   3.876        -24.812
   3.878        -24.812
   3.880        -24.813
   3.882        -24.814
   3.885        -24.814
   3.887        -24.815
   3.889        -24.816
   3.891        -24.816
   3.899        -24.818
   3.912        -24.822
   3.925        -24.826
   3.938        -24.830
   3.951        -24.834
   3.964        -24.837
   3.977        -24.841
   3.990        -24.845
   4.003        -24.849
   4.016        -24.853
   4.029        -24.857
   4.042        -24.861
   4.055        -24.865
   4.068        -24.869
   4.081        -24.873
   4.094        -24.877
   4.107        -24.882
   4.120        -24.886
   4.133        -24.891
   4.146        -24.896
   4.159        -24.901
   4.172        -24.906
   4.185        -24.911
   4.198        -24.917
   4.211        -24.923
   4.224        -24.929
   4.237        -24.936
   4.250        -24.943
   4.263        -24.950
   4.276        -24.958
   4.289        -24.966
   4.302        -24.975
   4.315        -24.984
   4.328        -24.993
   4.341        -25.003
   4.354        -25.013
   4.367        -25.024
   4.380        -25.035
   4.393        -25.046
   4.406        -25.058
   4.420        -25.069
   4.432        -25.081
   4.445        -25.094
   4.459        -25.107
   4.471        -25.119
   4.484        -25.132
   4.498        -25.146
   4.510        -25.159
   4.524        -25.173
   4.537        -25.187
   4.550        -25.201
   4.563        -25.215
   4.576        -25.230
   4.589        -25.244
   4.602        -25.259
   4.615        -25.274
   4.628        -25.289
   4.641        -25.304
   4.654        -25.320
   4.667        -25.335
   4.680        -25.351
   4.693        -25.367
   4.706        -25.383
   4.719        -25.399
   4.732        -25.415
   4.745        -25.431
   4.758        -25.448
   4.771        -25.465
   4.784        -25.481
   4.797        -25.498
   4.810        -25.515
   4.823        -25.533
   4.836        -25.550
   4.849        -25.568
   4.862        -25.585
   4.875        -25.603
   4.888        -25.621
   4.901        -25.639
   4.914        -25.657
   4.927        -25.676
   4.940        -25.694
   4.953        -25.713
   4.966        -25.732
   4.979        -25.751
   4.992        -25.770
   5.005        -25.789
   5.018        -25.808
   5.031        -25.827
   5.044        -25.847
   5.057        -25.867
   5.070        -25.887
   5.083        -25.906
   5.096        -25.926
   5.109        -25.946
   5.123        -25.966
   5.136        -25.986
   5.149        -26.006
   5.162        -26.027
   5.175        -26.047
   5.188        -26.068
   5.201        -26.088
   5.214        -26.109
   5.227        -26.129
   5.240        -26.150
   5.253        -26.171
   5.266        -26.192
   5.279        -26.213
   5.292        -26.234
   5.305        -26.255
   5.318        -26.277
   5.331        -26.298
   5.344        -26.320
   5.357        -26.342
   5.370        -26.364
   5.383        -26.387
   5.396        -26.409
   5.409        -26.432
   5.422        -26.455
   5.435        -26.479
   5.448        -26.502
   5.461        -26.526
   5.474        -26.550
   5.487        -26.575
   5.500        -26.599
   5.513        -26.625
   5.526        -26.650
   5.539        -26.676
   5.552        -26.702
   5.565        -26.728
   5.578        -26.755
   5.591        -26.782
   5.604        -26.810
   5.617        -26.838
   5.630        -26.867
   5.643        -26.895
   5.656        -26.925
   5.669        -26.954
   5.682        -26.985
   5.695        -27.015
   5.708        -27.046
   5.721        -27.078
   5.734        -27.110
   5.748        -27.143
   5.761        -27.177
   5.774        -27.211
   5.787        -27.245
   5.800        -27.281
   5.813        -27.316
   5.826        -27.353
   5.839        -27.390
   5.852        -27.428
   5.865        -27.466
   5.878        -27.506
   5.891        -27.546
   5.904        -27.587
   5.917        -27.628
   5.930        -27.671
   5.943        -27.714
   5.956        -27.758
   5.969        -27.803
   5.982        -27.849
   5.995        -27.896
   6.008        -27.944
   6.021        -27.993
   6.034        -28.042
   6.047        -28.093
   6.060        -28.145
   6.073        -28.199
   6.086        -28.252
   6.099        -28.308
   6.112        -28.365
   6.125        -28.422
   6.138        -28.481
   6.151        -28.542
   6.164        -28.604
   6.177        -28.667
   6.190        -28.731
   6.203        -28.797
   6.216        -28.865
   6.229        -28.934
   6.242        -29.005
   6.255        -29.077
   6.268        -29.151
   6.281        -29.227
   6.294        -29.304
   6.307        -29.383
   6.320        -29.464
   6.334        -29.548
   6.346        -29.633
   6.359        -29.720
   6.372        -29.809
   6.386        -29.901
   6.399        -29.994
   6.411        -30.091
   6.425        -30.189
   6.438        -30.290
   6.451        -30.393
   6.464        -30.498
   6.477        -30.605
   6.490        -30.716
   6.503        -30.831
   6.516        -30.948
   6.529        -31.066
   6.542        -31.190
   6.555        -31.316
   6.568        -31.444
   6.581        -31.576
   6.594        -31.712
   6.607        -31.854
   6.620        -31.997
   6.633        -32.141
   6.646        -32.289
   6.659        -32.444
   6.672        -32.603
   6.685        -32.765
   6.698        -32.931
   6.711        -33.103
   6.724        -33.280
   6.737        -33.460
   6.750        -33.643
   6.763        -33.838
   6.776        -34.041
   6.789        -34.244
   6.802        -34.452
   6.815        -34.667
   6.828        -34.911
   6.841        -35.178
   6.854        -35.488
   6.867        -36.132
   6.880        -37.208
   6.893        -40.969
