# log Energy    log Jnu
# (eV)          (ergs/s/cm2/Hz/Sr)
  -6.864        -20.333
  -6.820        -20.247
  -6.777        -20.160
  -6.734        -20.073
  -6.690        -19.986
  -6.647        -19.899
  -6.603        -19.812
  -6.560        -19.725
  -6.516        -19.639
  -6.473        -19.552
  -6.430        -19.465
  -6.386        -19.378
  -6.343        -19.291
  -6.299        -19.204
  -6.256        -19.117
  -6.212        -19.031
  -6.169        -18.944
  -6.126        -18.857
  -6.082        -18.770
  -6.039        -18.683
  -5.995        -18.596
  -5.952        -18.510
  -5.908        -18.423
  -5.865        -18.336
  -5.822        -18.249
  -5.778        -18.162
  -5.735        -18.076
  -5.691        -17.989
  -5.648        -17.902
  -5.605        -17.815
  -5.561        -17.728
  -5.518        -17.642
  -5.474        -17.555
  -5.431        -17.468
  -5.387        -17.381
  -5.344        -17.295
  -5.300        -17.208
  -5.257        -17.121
  -5.214        -17.034
  -5.170        -16.948
  -5.127        -16.861
  -5.083        -16.774
  -5.040        -16.687
  -4.996        -16.601
  -4.953        -16.514
  -4.910        -16.428
  -4.866        -16.341
  -4.823        -16.254
  -4.779        -16.168
  -4.736        -16.081
  -4.692        -15.995
  -4.649        -15.909
  -4.606        -15.822
  -4.562        -15.736
  -4.519        -15.650
  -4.475        -15.564
  -4.432        -15.478
  -4.388        -15.392
  -4.345        -15.306
  -4.302        -15.220
  -4.258        -15.134
  -4.215        -15.049
  -4.171        -14.963
  -4.128        -14.878
  -4.084        -14.793
  -4.041        -14.708
  -3.998        -14.623
  -3.954        -14.539
  -3.911        -14.455
  -3.867        -14.371
  -3.824        -14.287
  -3.781        -14.204
  -3.737        -14.121
  -3.693        -14.038
  -3.650        -13.956
  -3.607        -13.875
  -3.584        -13.837
  -3.582        -13.827
  -3.580        -13.825
  -3.577        -13.822
  -3.575        -13.818
  -3.573        -13.814
  -3.571        -13.810
  -3.569        -13.806
  -3.567        -13.802
  -3.564        -13.798
  -3.562        -13.794
  -3.560        -13.790
  -3.558        -13.786
  -3.556        -13.782
  -3.554        -13.777
  -3.551        -13.774
  -3.549        -13.769
  -3.547        -13.765
  -3.545        -13.761
  -3.543        -13.758
  -3.540        -13.754
  -3.538        -13.750
  -3.536        -13.745
  -3.534        -13.741
  -3.532        -13.737
  -3.530        -13.733
  -3.528        -13.729
  -3.525        -13.725
  -3.523        -13.721
  -3.521        -13.717
  -3.519        -13.713
  -3.517        -13.709
  -3.514        -13.706
  -3.512        -13.701
  -3.510        -13.697
  -3.508        -13.693
  -3.506        -13.689
  -3.504        -13.685
  -3.502        -13.681
  -3.499        -13.678
  -3.497        -13.674
  -3.495        -13.670
  -3.493        -13.666
  -3.491        -13.662
  -3.488        -13.658
  -3.486        -13.654
  -3.484        -13.650
  -3.482        -13.646
  -3.480        -13.642
  -3.477        -13.638
  -3.475        -13.634
  -3.473        -13.630
  -3.471        -13.626
  -3.469        -13.622
  -3.467        -13.618
  -3.464        -13.614
  -3.462        -13.610
  -3.460        -13.606
  -3.458        -13.602
  -3.456        -13.598
  -3.454        -13.595
  -3.451        -13.591
  -3.449        -13.587
  -3.447        -13.583
  -3.445        -13.579
  -3.443        -13.575
  -3.441        -13.571
  -3.438        -13.567
  -3.436        -13.563
  -3.434        -13.559
  -3.432        -13.555
  -3.430        -13.551
  -3.428        -13.548
  -3.425        -13.544
  -3.423        -13.540
  -3.421        -13.536
  -3.419        -13.532
  -3.417        -13.528
  -3.415        -13.524
  -3.412        -13.520
  -3.410        -13.516
  -3.408        -13.512
  -3.406        -13.509
  -3.404        -13.505
  -3.402        -13.501
  -3.399        -13.497
  -3.397        -13.493
  -3.395        -13.489
  -3.393        -13.485
  -3.391        -13.481
  -3.389        -13.478
  -3.386        -13.474
  -3.384        -13.470
  -3.382        -13.466
  -3.380        -13.462
  -3.378        -13.458
  -3.376        -13.454
  -3.373        -13.451
  -3.371        -13.447
  -3.369        -13.443
  -3.367        -13.439
  -3.365        -13.435
  -3.362        -13.431
  -3.360        -13.428
  -3.358        -13.424
  -3.356        -13.420
  -3.354        -13.416
  -3.352        -13.412
  -3.349        -13.408
  -3.347        -13.405
  -3.345        -13.401
  -3.343        -13.397
  -3.341        -13.393
  -3.339        -13.389
  -3.336        -13.386
  -3.334        -13.382
  -3.332        -13.378
  -3.330        -13.374
  -3.328        -13.371
  -3.326        -13.367
  -3.323        -13.363
  -3.321        -13.359
  -3.319        -13.355
  -3.317        -13.352
  -3.315        -13.348
  -3.313        -13.344
  -3.310        -13.340
  -3.308        -13.337
  -3.306        -13.333
  -3.304        -13.329
  -3.302        -13.325
  -3.300        -13.321
  -3.297        -13.318
  -3.295        -13.314
  -3.293        -13.310
  -3.291        -13.307
  -3.289        -13.303
  -3.287        -13.299
  -3.284        -13.295
  -3.282        -13.292
  -3.280        -13.288
  -3.278        -13.284
  -3.276        -13.281
  -3.273        -13.277
  -3.271        -13.273
  -3.269        -13.269
  -3.267        -13.266
  -3.265        -13.262
  -3.263        -13.258
  -3.260        -13.255
  -3.258        -13.251
  -3.256        -13.247
  -3.254        -13.244
  -3.252        -13.240
  -3.250        -13.236
  -3.247        -13.233
  -3.245        -13.229
  -3.243        -13.225
  -3.241        -13.222
  -3.239        -13.218
  -3.237        -13.214
  -3.234        -13.211
  -3.232        -13.207
  -3.230        -13.203
  -3.228        -13.200
  -3.226        -13.196
  -3.224        -13.193
  -3.221        -13.189
  -3.219        -13.185
  -3.217        -13.182
  -3.215        -13.178
  -3.213        -13.174
  -3.211        -13.171
  -3.208        -13.167
  -3.206        -13.164
  -3.204        -13.160
  -3.202        -13.157
  -3.200        -13.153
  -3.197        -13.149
  -3.195        -13.146
  -3.193        -13.142
  -3.191        -13.139
  -3.189        -13.135
  -3.187        -13.132
  -3.184        -13.128
  -3.182        -13.125
  -3.180        -13.121
  -3.178        -13.117
  -3.176        -13.114
  -3.174        -13.110
  -3.171        -13.107
  -3.169        -13.103
  -3.167        -13.100
  -3.165        -13.096
  -3.163        -13.093
  -3.161        -13.089
  -3.158        -13.086
  -3.156        -13.082
  -3.154        -13.079
  -3.152        -13.075
  -3.150        -13.072
  -3.148        -13.069
  -3.145        -13.065
  -3.143        -13.062
  -3.141        -13.058
  -3.139        -13.055
  -3.137        -13.051
  -3.135        -13.048
  -3.132        -13.044
  -3.130        -13.041
  -3.128        -13.038
  -3.126        -13.034
  -3.124        -13.031
  -3.122        -13.027
  -3.119        -13.024
  -3.117        -13.020
  -3.115        -13.017
  -3.113        -13.014
  -3.111        -13.010
  -3.108        -13.007
  -3.106        -13.004
  -3.104        -13.000
  -3.102        -12.997
  -3.100        -12.994
  -3.098        -12.990
  -3.095        -12.987
  -3.093        -12.983
  -3.091        -12.980
  -3.089        -12.977
  -3.087        -12.973
  -3.085        -12.970
  -3.082        -12.967
  -3.080        -12.964
  -3.078        -12.960
  -3.076        -12.957
  -3.074        -12.954
  -3.072        -12.951
  -3.069        -12.947
  -3.067        -12.944
  -3.065        -12.941
  -3.063        -12.937
  -3.061        -12.934
  -3.059        -12.931
  -3.056        -12.928
  -3.054        -12.924
  -3.052        -12.921
  -3.050        -12.918
  -3.048        -12.915
  -3.046        -12.912
  -3.043        -12.908
  -3.041        -12.905
  -3.039        -12.902
  -3.037        -12.899
  -3.035        -12.896
  -3.032        -12.892
  -3.030        -12.889
  -3.028        -12.886
  -3.026        -12.883
  -3.024        -12.880
  -3.022        -12.877
  -3.019        -12.874
  -3.017        -12.870
  -3.015        -12.867
  -3.013        -12.864
  -3.011        -12.861
  -3.009        -12.858
  -3.006        -12.855
  -3.004        -12.852
  -3.002        -12.849
  -3.000        -12.846
  -2.998        -12.843
  -2.996        -12.840
  -2.993        -12.837
  -2.991        -12.834
  -2.989        -12.831
  -2.987        -12.827
  -2.985        -12.824
  -2.983        -12.822
  -2.980        -12.819
  -2.978        -12.815
  -2.976        -12.813
  -2.974        -12.810
  -2.972        -12.807
  -2.970        -12.804
  -2.967        -12.801
  -2.965        -12.798
  -2.963        -12.795
  -2.961        -12.792
  -2.959        -12.789
  -2.956        -12.786
  -2.954        -12.783
  -2.952        -12.780
  -2.950        -12.777
  -2.948        -12.774
  -2.946        -12.772
  -2.944        -12.769
  -2.941        -12.766
  -2.939        -12.763
  -2.937        -12.760
  -2.935        -12.757
  -2.933        -12.755
  -2.930        -12.752
  -2.928        -12.749
  -2.926        -12.746
  -2.924        -12.743
  -2.922        -12.741
  -2.920        -12.738
  -2.917        -12.735
  -2.915        -12.732
  -2.913        -12.730
  -2.911        -12.727
  -2.909        -12.724
  -2.907        -12.722
  -2.904        -12.719
  -2.902        -12.716
  -2.900        -12.714
  -2.898        -12.711
  -2.896        -12.708
  -2.894        -12.706
  -2.891        -12.703
  -2.889        -12.700
  -2.887        -12.698
  -2.885        -12.695
  -2.883        -12.693
  -2.880        -12.690
  -2.878        -12.687
  -2.876        -12.685
  -2.874        -12.682
  -2.872        -12.680
  -2.870        -12.677
  -2.867        -12.675
  -2.865        -12.672
  -2.863        -12.669
  -2.861        -12.667
  -2.859        -12.665
  -2.857        -12.662
  -2.855        -12.659
  -2.852        -12.657
  -2.850        -12.655
  -2.848        -12.652
  -2.846        -12.650
  -2.843        -12.648
  -2.842        -12.645
  -2.839        -12.643
  -2.837        -12.640
  -2.835        -12.638
  -2.833        -12.636
  -2.831        -12.633
  -2.828        -12.631
  -2.826        -12.629
  -2.824        -12.626
  -2.822        -12.624
  -2.820        -12.622
  -2.817        -12.619
  -2.815        -12.617
  -2.813        -12.615
  -2.811        -12.613
  -2.809        -12.611
  -2.807        -12.608
  -2.805        -12.606
  -2.802        -12.604
  -2.800        -12.602
  -2.798        -12.600
  -2.796        -12.598
  -2.794        -12.596
  -2.792        -12.593
  -2.789        -12.591
  -2.787        -12.589
  -2.785        -12.587
  -2.783        -12.585
  -2.781        -12.583
  -2.779        -12.581
  -2.776        -12.579
  -2.774        -12.577
  -2.772        -12.575
  -2.770        -12.573
  -2.767        -12.571
  -2.765        -12.569
  -2.763        -12.567
  -2.761        -12.565
  -2.759        -12.564
  -2.757        -12.562
  -2.754        -12.560
  -2.753        -12.558
  -2.750        -12.556
  -2.748        -12.554
  -2.746        -12.552
  -2.744        -12.551
  -2.741        -12.549
  -2.739        -12.547
  -2.737        -12.545
  -2.735        -12.544
  -2.733        -12.542
  -2.731        -12.540
  -2.729        -12.538
  -2.726        -12.537
  -2.724        -12.535
  -2.722        -12.534
  -2.720        -12.532
  -2.718        -12.530
  -2.716        -12.529
  -2.713        -12.527
  -2.711        -12.526
  -2.709        -12.524
  -2.707        -12.523
  -2.705        -12.521
  -2.703        -12.520
  -2.700        -12.518
  -2.698        -12.517
  -2.696        -12.515
  -2.694        -12.514
  -2.692        -12.513
  -2.689        -12.511
  -2.687        -12.509
  -2.685        -12.508
  -2.683        -12.507
  -2.681        -12.506
  -2.679        -12.504
  -2.677        -12.503
  -2.674        -12.502
  -2.672        -12.501
  -2.670        -12.500
  -2.668        -12.498
  -2.666        -12.497
  -2.663        -12.496
  -2.661        -12.495
  -2.659        -12.494
  -2.657        -12.493
  -2.655        -12.491
  -2.653        -12.490
  -2.650        -12.490
  -2.648        -12.488
  -2.646        -12.487
  -2.644        -12.487
  -2.642        -12.485
  -2.640        -12.485
  -2.637        -12.484
  -2.635        -12.483
  -2.633        -12.482
  -2.631        -12.481
  -2.629        -12.480
  -2.626        -12.479
  -2.624        -12.479
  -2.622        -12.478
  -2.620        -12.477
  -2.618        -12.476
  -2.616        -12.476
  -2.614        -12.475
  -2.611        -12.475
  -2.609        -12.474
  -2.607        -12.473
  -2.605        -12.473
  -2.603        -12.472
  -2.600        -12.471
  -2.598        -12.471
  -2.596        -12.471
  -2.594        -12.470
  -2.592        -12.470
  -2.590        -12.469
  -2.587        -12.469
  -2.585        -12.468
  -2.583        -12.468
  -2.581        -12.468
  -2.579        -12.467
  -2.577        -12.467
  -2.574        -12.467
  -2.572        -12.467
  -2.570        -12.467
  -2.568        -12.466
  -2.566        -12.466
  -2.564        -12.466
  -2.561        -12.466
  -2.559        -12.466
  -2.557        -12.466
  -2.555        -12.466
  -2.553        -12.466
  -2.551        -12.466
  -2.548        -12.466
  -2.546        -12.466
  -2.544        -12.466
  -2.542        -12.466
  -2.540        -12.467
  -2.538        -12.467
  -2.535        -12.467
  -2.533        -12.467
  -2.531        -12.468
  -2.529        -12.468
  -2.527        -12.468
  -2.525        -12.469
  -2.522        -12.469
  -2.520        -12.469
  -2.518        -12.470
  -2.516        -12.471
  -2.514        -12.471
  -2.511        -12.471
  -2.509        -12.472
  -2.507        -12.473
  -2.505        -12.473
  -2.503        -12.474
  -2.501        -12.475
  -2.498        -12.476
  -2.496        -12.476
  -2.494        -12.477
  -2.492        -12.478
  -2.490        -12.479
  -2.488        -12.480
  -2.485        -12.481
  -2.483        -12.482
  -2.481        -12.483
  -2.479        -12.484
  -2.477        -12.485
  -2.475        -12.486
  -2.472        -12.487
  -2.470        -12.488
  -2.468        -12.489
  -2.466        -12.491
  -2.464        -12.492
  -2.462        -12.493
  -2.459        -12.494
  -2.457        -12.496
  -2.455        -12.497
  -2.453        -12.499
  -2.451        -12.500
  -2.448        -12.502
  -2.446        -12.503
  -2.444        -12.505
  -2.442        -12.506
  -2.440        -12.508
  -2.438        -12.510
  -2.435        -12.511
  -2.433        -12.513
  -2.431        -12.515
  -2.429        -12.517
  -2.427        -12.519
  -2.425        -12.521
  -2.422        -12.523
  -2.420        -12.525
  -2.418        -12.527
  -2.416        -12.529
  -2.414        -12.531
  -2.412        -12.533
  -2.409        -12.535
  -2.407        -12.538
  -2.405        -12.540
  -2.403        -12.542
  -2.401        -12.545
  -2.398        -12.547
  -2.396        -12.549
  -2.394        -12.552
  -2.392        -12.555
  -2.390        -12.557
  -2.388        -12.560
  -2.386        -12.562
  -2.383        -12.565
  -2.381        -12.568
  -2.379        -12.571
  -2.377        -12.573
  -2.375        -12.576
  -2.372        -12.579
  -2.370        -12.582
  -2.368        -12.585
  -2.366        -12.588
  -2.364        -12.591
  -2.362        -12.595
  -2.359        -12.598
  -2.357        -12.601
  -2.355        -12.604
  -2.353        -12.608
  -2.351        -12.611
  -2.349        -12.614
  -2.346        -12.618
  -2.344        -12.621
  -2.342        -12.625
  -2.340        -12.629
  -2.338        -12.632
  -2.336        -12.636
  -2.333        -12.640
  -2.331        -12.644
  -2.329        -12.647
  -2.327        -12.651
  -2.325        -12.655
  -2.323        -12.659
  -2.320        -12.663
  -2.318        -12.667
  -2.316        -12.672
  -2.314        -12.676
  -2.312        -12.680
  -2.309        -12.684
  -2.307        -12.689
  -2.305        -12.693
  -2.303        -12.698
  -2.301        -12.702
  -2.299        -12.707
  -2.297        -12.711
  -2.294        -12.716
  -2.292        -12.721
  -2.290        -12.726
  -2.288        -12.731
  -2.286        -12.735
  -2.283        -12.740
  -2.281        -12.745
  -2.279        -12.751
  -2.277        -12.756
  -2.275        -12.761
  -2.273        -12.766
  -2.270        -12.771
  -2.268        -12.777
  -2.266        -12.782
  -2.264        -12.788
  -2.262        -12.793
  -2.260        -12.799
  -2.257        -12.804
  -2.255        -12.810
  -2.253        -12.816
  -2.251        -12.822
  -2.249        -12.828
  -2.247        -12.834
  -2.244        -12.840
  -2.242        -12.846
  -2.240        -12.852
  -2.238        -12.858
  -2.236        -12.864
  -2.234        -12.871
  -2.231        -12.877
  -2.229        -12.884
  -2.227        -12.890
  -2.225        -12.897
  -2.223        -12.903
  -2.220        -12.910
  -2.218        -12.917
  -2.216        -12.924
  -2.214        -12.931
  -2.212        -12.938
  -2.210        -12.945
  -2.207        -12.952
  -2.205        -12.959
  -2.203        -12.966
  -2.201        -12.974
  -2.199        -12.981
  -2.197        -12.988
  -2.194        -12.996
  -2.192        -13.003
  -2.190        -13.011
  -2.188        -13.019
  -2.186        -13.027
  -2.184        -13.034
  -2.181        -13.043
  -2.179        -13.051
  -2.177        -13.059
  -2.175        -13.067
  -2.173        -13.075
  -2.171        -13.083
  -2.168        -13.092
  -2.166        -13.100
  -2.164        -13.109
  -2.162        -13.117
  -2.160        -13.126
  -2.158        -13.135
  -2.155        -13.144
  -2.153        -13.153
  -2.151        -13.162
  -2.149        -13.171
  -2.147        -13.180
  -2.145        -13.189
  -2.142        -13.198
  -2.140        -13.208
  -2.138        -13.217
  -2.136        -13.227
  -2.134        -13.236
  -2.131        -13.246
  -2.129        -13.256
  -2.127        -13.266
  -2.125        -13.276
  -2.123        -13.286
  -2.121        -13.296
  -2.118        -13.306
  -2.116        -13.316
  -2.114        -13.327
  -2.112        -13.337
  -2.110        -13.348
  -2.108        -13.358
  -2.105        -13.369
  -2.103        -13.380
  -2.101        -13.391
  -2.099        -13.401
  -2.097        -13.413
  -2.095        -13.424
  -2.092        -13.435
  -2.090        -13.446
  -2.088        -13.458
  -2.086        -13.469
  -2.084        -13.481
  -2.082        -13.492
  -2.079        -13.504
  -2.077        -13.516
  -2.075        -13.528
  -2.073        -13.540
  -2.071        -13.552
  -2.069        -13.564
  -2.066        -13.577
  -2.064        -13.589
  -2.062        -13.602
  -2.060        -13.614
  -2.058        -13.627
  -2.056        -13.640
  -2.053        -13.653
  -2.051        -13.666
  -2.049        -13.679
  -2.047        -13.692
  -2.045        -13.705
  -2.043        -13.718
  -2.040        -13.732
  -2.038        -13.745
  -2.036        -13.759
  -2.034        -13.773
  -2.032        -13.787
  -2.029        -13.801
  -2.027        -13.815
  -2.025        -13.829
  -2.023        -13.843
  -2.021        -13.858
  -2.019        -13.872
  -2.016        -13.887
  -2.014        -13.902
  -2.012        -13.916
  -2.010        -13.931
  -2.008        -13.946
  -2.006        -13.962
  -2.003        -13.977
  -2.001        -13.992
  -1.999        -14.008
  -1.997        -14.023
  -1.995        -14.039
  -1.993        -14.055
  -1.990        -14.071
  -1.988        -14.087
  -1.986        -14.103
  -1.984        -14.119
  -1.982        -14.135
  -1.980        -14.152
  -1.977        -14.168
  -1.975        -14.185
  -1.973        -14.202
  -1.971        -14.219
  -1.969        -14.236
  -1.967        -14.253
  -1.964        -14.271
  -1.962        -14.288
  -1.960        -14.305
  -1.958        -14.323
  -1.956        -14.341
  -1.953        -14.359
  -1.951        -14.377
  -1.949        -14.395
  -1.947        -14.413
  -1.945        -14.432
  -1.943        -14.450
  -1.940        -14.469
  -1.938        -14.487
  -1.936        -14.506
  -1.934        -14.525
  -1.932        -14.545
  -1.930        -14.564
  -1.927        -14.583
  -1.925        -14.603
  -1.923        -14.623
  -1.921        -14.642
  -1.919        -14.662
  -1.917        -14.682
  -1.914        -14.703
  -1.912        -14.723
  -1.910        -14.743
  -1.908        -14.764
  -1.906        -14.785
  -1.904        -14.806
  -1.901        -14.827
  -1.899        -14.848
  -1.897        -14.869
  -1.895        -14.890
  -1.893        -14.912
  -1.891        -14.934
  -1.888        -14.956
  -1.886        -14.978
  -1.884        -15.000
  -1.882        -15.022
  -1.880        -15.045
  -1.877        -15.067
  -1.875        -15.090
  -1.873        -15.113
  -1.871        -15.135
  -1.869        -15.159
  -1.867        -15.182
  -1.864        -15.206
  -1.862        -15.229
  -1.860        -15.253
  -1.858        -15.277
  -1.856        -15.301
  -1.853        -15.325
  -1.851        -15.350
  -1.849        -15.374
  -1.847        -15.399
  -1.845        -15.423
  -1.843        -15.449
  -1.841        -15.473
  -1.838        -15.499
  -1.836        -15.524
  -1.834        -15.550
  -1.832        -15.576
  -1.830        -15.602
  -1.828        -15.628
  -1.825        -15.654
  -1.823        -15.681
  -1.821        -15.707
  -1.819        -15.734
  -1.817        -15.761
  -1.815        -15.788
  -1.812        -15.815
  -1.810        -15.843
  -1.808        -15.870
  -1.806        -15.898
  -1.804        -15.926
  -1.801        -15.954
  -1.799        -15.982
  -1.797        -16.010
  -1.795        -16.039
  -1.793        -16.068
  -1.791        -16.097
  -1.788        -16.126
  -1.786        -16.155
  -1.784        -16.185
  -1.782        -16.215
  -1.780        -16.244
  -1.777        -16.274
  -1.775        -16.305
  -1.773        -16.335
  -1.771        -16.365
  -1.769        -16.396
  -1.767        -16.427
  -1.764        -16.458
  -1.763        -16.489
  -1.760        -16.521
  -1.758        -16.553
  -1.756        -16.584
  -1.754        -16.616
  -1.752        -16.648
  -1.749        -16.681
  -1.747        -16.714
  -1.745        -16.746
  -1.743        -16.779
  -1.741        -16.812
  -1.739        -16.845
  -1.736        -16.879
  -1.734        -16.912
  -1.732        -16.946
  -1.730        -16.980
  -1.728        -17.014
  -1.726        -17.048
  -1.723        -17.082
  -1.721        -17.117
  -1.719        -17.152
  -1.717        -17.186
  -1.715        -17.222
  -1.713        -17.257
  -1.710        -17.292
  -1.708        -17.327
  -1.706        -17.363
  -1.704        -17.399
  -1.702        -17.434
  -1.699        -17.470
  -1.697        -17.506
  -1.695        -17.542
  -1.693        -17.579
  -1.691        -17.615
  -1.689        -17.651
  -1.686        -17.687
  -1.684        -17.723
  -1.682        -17.759
  -1.680        -17.796
  -1.678        -17.832
  -1.675        -17.868
  -1.673        -17.904
  -1.671        -17.940
  -1.669        -17.975
  -1.667        -18.011
  -1.665        -18.046
  -1.663        -18.081
  -1.660        -18.115
  -1.658        -18.150
  -1.656        -18.184
  -1.654        -18.217
  -1.652        -18.250
  -1.650        -18.283
  -1.647        -18.315
  -1.645        -18.346
  -1.643        -18.376
  -1.641        -18.406
  -1.639        -18.435
  -1.637        -18.463
  -1.634        -18.491
  -1.632        -18.517
  -1.630        -18.543
  -1.628        -18.567
  -1.626        -18.591
  -1.623        -18.614
  -1.621        -18.635
  -1.619        -18.655
  -1.617        -18.674
  -1.615        -18.693
  -1.613        -18.710
  -1.611        -18.726
  -1.608        -18.742
  -1.606        -18.756
  -1.604        -18.770
  -1.602        -18.782
  -1.600        -18.794
  -1.597        -18.804
  -1.595        -18.814
  -1.593        -18.823
  -1.591        -18.832
  -1.589        -18.840
  -1.587        -18.847
  -1.584        -18.853
  -1.582        -18.859
  -1.580        -18.865
  -1.578        -18.871
  -1.576        -18.875
  -1.573        -18.879
  -1.571        -18.884
  -1.569        -18.887
  -1.567        -18.891
  -1.565        -18.894
  -1.563        -18.897
  -1.561        -18.899
  -1.558        -18.902
  -1.556        -18.904
  -1.554        -18.906
  -1.552        -18.908
  -1.550        -18.910
  -1.547        -18.912
  -1.545        -18.914
  -1.543        -18.915
  -1.541        -18.917
  -1.539        -18.918
  -1.537        -18.920
  -1.534        -18.921
  -1.532        -18.922
  -1.530        -18.923
  -1.528        -18.924
  -1.526        -18.925
  -1.524        -18.926
  -1.522        -18.927
  -1.519        -18.928
  -1.517        -18.929
  -1.515        -18.930
  -1.513        -18.931
  -1.511        -18.932
  -1.508        -18.933
  -1.506        -18.934
  -1.504        -18.935
  -1.502        -18.936
  -1.500        -18.936
  -1.498        -18.937
  -1.495        -18.939
  -1.493        -18.939
  -1.491        -18.940
  -1.489        -18.941
  -1.487        -18.942
  -1.484        -18.942
  -1.482        -18.943
  -1.480        -18.944
  -1.478        -18.945
  -1.476        -18.946
  -1.474        -18.947
  -1.472        -18.947
  -1.469        -18.948
  -1.467        -18.949
  -1.465        -18.950
  -1.463        -18.951
  -1.461        -18.952
  -1.458        -18.952
  -1.456        -18.953
  -1.454        -18.954
  -1.452        -18.955
  -1.450        -18.956
  -1.448        -18.956
  -1.445        -18.957
  -1.443        -18.958
  -1.441        -18.959
  -1.439        -18.960
  -1.437        -18.961
  -1.435        -18.961
  -1.432        -18.962
  -1.430        -18.963
  -1.428        -18.964
  -1.426        -18.965
  -1.424        -18.965
  -1.422        -18.966
  -1.419        -18.967
  -1.417        -18.968
  -1.415        -18.969
  -1.413        -18.969
  -1.411        -18.970
  -1.409        -18.971
  -1.406        -18.972
  -1.404        -18.973
  -1.402        -18.973
  -1.400        -18.974
  -1.398        -18.975
  -1.396        -18.976
  -1.393        -18.976
  -1.391        -18.977
  -1.389        -18.978
  -1.387        -18.979
  -1.385        -18.980
  -1.383        -18.981
  -1.380        -18.981
  -1.378        -18.982
  -1.376        -18.983
  -1.374        -18.984
  -1.372        -18.985
  -1.370        -18.985
  -1.367        -18.986
  -1.365        -18.987
  -1.363        -18.987
  -1.361        -18.988
  -1.359        -18.989
  -1.356        -18.990
  -1.354        -18.991
  -1.352        -18.992
  -1.350        -18.992
  -1.348        -18.993
  -1.346        -18.994
  -1.343        -18.995
  -1.341        -18.995
  -1.339        -18.996
  -1.337        -18.997
  -1.335        -18.998
  -1.333        -18.998
  -1.330        -18.999
  -1.328        -19.000
  -1.326        -19.001
  -1.324        -19.002
  -1.322        -19.002
  -1.320        -19.003
  -1.317        -19.004
  -1.315        -19.005
  -1.313        -19.006
  -1.311        -19.006
  -1.309        -19.007
  -1.307        -19.008
  -1.304        -19.009
  -1.302        -19.009
  -1.300        -19.010
  -1.298        -19.011
  -1.296        -19.012
  -1.293        -19.013
  -1.291        -19.013
  -1.289        -19.014
  -1.287        -19.015
  -1.285        -19.016
  -1.283        -19.017
  -1.280        -19.017
  -1.278        -19.018
  -1.276        -19.019
  -1.274        -19.020
  -1.272        -19.020
  -1.270        -19.021
  -1.267        -19.022
  -1.265        -19.023
  -1.263        -19.023
  -1.261        -19.024
  -1.259        -19.025
  -1.257        -19.026
  -1.254        -19.027
  -1.252        -19.027
  -1.250        -19.028
  -1.248        -19.029
  -1.246        -19.030
  -1.243        -19.031
  -1.241        -19.032
  -1.239        -19.032
  -1.237        -19.033
  -1.235        -19.034
  -1.233        -19.035
  -1.231        -19.035
  -1.228        -19.036
  -1.226        -19.037
  -1.224        -19.038
  -1.222        -19.039
  -1.220        -19.040
  -1.217        -19.040
  -1.215        -19.041
  -1.213        -19.042
  -1.211        -19.042
  -1.209        -19.043
  -1.207        -19.044
  -1.204        -19.045
  -1.202        -19.046
  -1.200        -19.047
  -1.198        -19.047
  -1.196        -19.048
  -1.194        -19.049
  -1.191        -19.050
  -1.189        -19.051
  -1.187        -19.052
  -1.185        -19.052
  -1.183        -19.053
  -1.181        -19.054
  -1.178        -19.055
  -1.176        -19.056
  -1.174        -19.057
  -1.172        -19.058
  -1.170        -19.059
  -1.168        -19.060
  -1.165        -19.060
  -1.163        -19.061
  -1.161        -19.062
  -1.159        -19.063
  -1.157        -19.064
  -1.155        -19.065
  -1.152        -19.066
  -1.150        -19.067
  -1.148        -19.068
  -1.146        -19.069
  -1.144        -19.070
  -1.142        -19.070
  -1.139        -19.071
  -1.137        -19.072
  -1.135        -19.073
  -1.133        -19.074
  -1.131        -19.075
  -1.129        -19.076
  -1.126        -19.077
  -1.124        -19.078
  -1.122        -19.079
  -1.120        -19.080
  -1.118        -19.081
  -1.115        -19.082
  -1.113        -19.083
  -1.111        -19.085
  -1.109        -19.086
  -1.107        -19.087
  -1.105        -19.088
  -1.102        -19.089
  -1.100        -19.090
  -1.098        -19.091
  -1.096        -19.092
  -1.094        -19.093
  -1.092        -19.095
  -1.089        -19.096
  -1.087        -19.097
  -1.085        -19.098
  -1.083        -19.099
  -1.081        -19.101
  -1.079        -19.102
  -1.076        -19.103
  -1.074        -19.104
  -1.072        -19.106
  -1.070        -19.107
  -1.068        -19.108
  -1.066        -19.110
  -1.063        -19.111
  -1.061        -19.113
  -1.059        -19.114
  -1.057        -19.115
  -1.055        -19.116
  -1.052        -19.118
  -1.050        -19.120
  -1.048        -19.121
  -1.046        -19.123
  -1.044        -19.124
  -1.042        -19.126
  -1.039        -19.127
  -1.037        -19.129
  -1.035        -19.131
  -1.033        -19.132
  -1.031        -19.134
  -1.029        -19.136
  -1.026        -19.138
  -1.024        -19.139
  -1.022        -19.141
  -1.020        -19.143
  -1.018        -19.145
  -1.016        -19.147
  -1.013        -19.148
  -1.011        -19.150
  -1.009        -19.152
  -1.007        -19.154
  -1.005        -19.156
  -1.003        -19.158
  -1.000        -19.160
  -0.998        -19.162
  -0.996        -19.164
  -0.994        -19.166
  -0.992        -19.168
  -0.990        -19.170
  -0.987        -19.172
  -0.985        -19.174
  -0.983        -19.176
  -0.981        -19.178
  -0.979        -19.179
  -0.977        -19.181
  -0.974        -19.183
  -0.972        -19.185
  -0.970        -19.187
  -0.968        -19.189
  -0.966        -19.191
  -0.963        -19.193
  -0.961        -19.195
  -0.959        -19.197
  -0.957        -19.198
  -0.955        -19.200
  -0.953        -19.202
  -0.950        -19.204
  -0.948        -19.206
  -0.946        -19.207
  -0.944        -19.209
  -0.942        -19.211
  -0.940        -19.212
  -0.937        -19.214
  -0.935        -19.216
  -0.933        -19.217
  -0.931        -19.219
  -0.929        -19.221
  -0.927        -19.222
  -0.924        -19.224
  -0.922        -19.225
  -0.920        -19.227
  -0.918        -19.228
  -0.916        -19.229
  -0.914        -19.231
  -0.911        -19.232
  -0.909        -19.234
  -0.907        -19.235
  -0.905        -19.237
  -0.903        -19.238
  -0.900        -19.239
  -0.898        -19.241
  -0.896        -19.242
  -0.894        -19.243
  -0.892        -19.244
  -0.890        -19.246
  -0.887        -19.247
  -0.885        -19.248
  -0.883        -19.249
  -0.881        -19.251
  -0.879        -19.252
  -0.877        -19.253
  -0.874        -19.254
  -0.872        -19.255
  -0.870        -19.256
  -0.868        -19.257
  -0.866        -19.258
  -0.864        -19.259
  -0.862        -19.260
  -0.859        -19.261
  -0.857        -19.262
  -0.855        -19.263
  -0.853        -19.264
  -0.851        -19.265
  -0.848        -19.266
  -0.846        -19.267
  -0.844        -19.268
  -0.842        -19.268
  -0.840        -19.269
  -0.838        -19.270
  -0.835        -19.271
  -0.833        -19.271
  -0.831        -19.272
  -0.829        -19.273
  -0.827        -19.273
  -0.825        -19.274
  -0.822        -19.275
  -0.820        -19.275
  -0.818        -19.276
  -0.816        -19.276
  -0.814        -19.277
  -0.812        -19.277
  -0.809        -19.278
  -0.807        -19.278
  -0.805        -19.279
  -0.803        -19.279
  -0.801        -19.280
  -0.799        -19.280
  -0.796        -19.281
  -0.794        -19.281
  -0.792        -19.281
  -0.790        -19.281
  -0.788        -19.282
  -0.785        -19.282
  -0.783        -19.282
  -0.781        -19.283
  -0.779        -19.283
  -0.777        -19.283
  -0.774        -19.283
  -0.772        -19.283
  -0.770        -19.284
  -0.768        -19.283
  -0.766        -19.284
  -0.764        -19.284
  -0.762        -19.284
  -0.759        -19.284
  -0.757        -19.284
  -0.755        -19.284
  -0.753        -19.284
  -0.751        -19.284
  -0.748        -19.284
  -0.746        -19.284
  -0.744        -19.284
  -0.742        -19.283
  -0.740        -19.283
  -0.738        -19.283
  -0.736        -19.283
  -0.733        -19.283
  -0.731        -19.283
  -0.729        -19.282
  -0.727        -19.282
  -0.725        -19.282
  -0.723        -19.282
  -0.720        -19.282
  -0.718        -19.281
  -0.716        -19.281
  -0.714        -19.281
  -0.712        -19.280
  -0.709        -19.280
  -0.707        -19.279
  -0.705        -19.279
  -0.703        -19.278
  -0.701        -19.278
  -0.699        -19.278
  -0.697        -19.277
  -0.694        -19.276
  -0.692        -19.276
  -0.690        -19.275
  -0.688        -19.275
  -0.685        -19.274
  -0.683        -19.273
  -0.681        -19.272
  -0.679        -19.272
  -0.677        -19.271
  -0.675        -19.270
  -0.673        -19.269
  -0.670        -19.268
  -0.668        -19.267
  -0.666        -19.266
  -0.664        -19.265
  -0.662        -19.264
  -0.659        -19.263
  -0.657        -19.262
  -0.655        -19.261
  -0.653        -19.259
  -0.651        -19.258
  -0.649        -19.257
  -0.647        -19.255
  -0.644        -19.254
  -0.642        -19.252
  -0.640        -19.251
  -0.638        -19.250
  -0.636        -19.248
  -0.633        -19.247
  -0.631        -19.245
  -0.629        -19.244
  -0.627        -19.242
  -0.625        -19.241
  -0.623        -19.239
  -0.621        -19.237
  -0.618        -19.236
  -0.616        -19.234
  -0.614        -19.233
  -0.612        -19.231
  -0.610        -19.229
  -0.608        -19.227
  -0.605        -19.226
  -0.603        -19.224
  -0.601        -19.222
  -0.599        -19.220
  -0.596        -19.219
  -0.594        -19.217
  -0.592        -19.215
  -0.590        -19.213
  -0.588        -19.211
  -0.586        -19.209
  -0.584        -19.207
  -0.581        -19.205
  -0.579        -19.203
  -0.577        -19.201
  -0.575        -19.199
  -0.573        -19.197
  -0.571        -19.195
  -0.568        -19.193
  -0.566        -19.191
  -0.564        -19.189
  -0.562        -19.187
  -0.560        -19.185
  -0.557        -19.183
  -0.555        -19.181
  -0.553        -19.179
  -0.551        -19.177
  -0.549        -19.175
  -0.547        -19.173
  -0.544        -19.171
  -0.542        -19.169
  -0.540        -19.167
  -0.538        -19.165
  -0.536        -19.163
  -0.534        -19.161
  -0.531        -19.159
  -0.529        -19.157
  -0.527        -19.155
  -0.525        -19.153
  -0.523        -19.151
  -0.521        -19.149
  -0.518        -19.147
  -0.516        -19.144
  -0.514        -19.142
  -0.512        -19.140
  -0.510        -19.138
  -0.507        -19.136
  -0.505        -19.134
  -0.503        -19.132
  -0.501        -19.130
  -0.499        -19.128
  -0.497        -19.126
  -0.495        -19.124
  -0.492        -19.122
  -0.490        -19.120
  -0.488        -19.118
  -0.486        -19.116
  -0.484        -19.114
  -0.482        -19.112
  -0.479        -19.110
  -0.477        -19.108
  -0.475        -19.106
  -0.473        -19.104
  -0.471        -19.102
  -0.468        -19.100
  -0.466        -19.098
  -0.464        -19.096
  -0.462        -19.094
  -0.460        -19.093
  -0.458        -19.091
  -0.455        -19.089
  -0.453        -19.087
  -0.451        -19.085
  -0.449        -19.083
  -0.447        -19.082
  -0.445        -19.080
  -0.442        -19.078
  -0.440        -19.076
  -0.438        -19.074
  -0.436        -19.072
  -0.434        -19.071
  -0.432        -19.069
  -0.429        -19.067
  -0.427        -19.065
  -0.425        -19.064
  -0.423        -19.062
  -0.421        -19.060
  -0.419        -19.058
  -0.416        -19.056
  -0.414        -19.055
  -0.412        -19.053
  -0.410        -19.051
  -0.408        -19.049
  -0.405        -19.047
  -0.403        -19.046
  -0.401        -19.044
  -0.399        -19.042
  -0.397        -19.041
  -0.395        -19.039
  -0.392        -19.037
  -0.390        -19.035
  -0.388        -19.034
  -0.386        -19.032
  -0.384        -19.030
  -0.382        -19.028
  -0.379        -19.027
  -0.377        -19.025
  -0.375        -19.023
  -0.373        -19.022
  -0.371        -19.020
  -0.369        -19.018
  -0.366        -19.016
  -0.364        -19.015
  -0.362        -19.013
  -0.360        -19.011
  -0.358        -19.009
  -0.356        -19.008
  -0.353        -19.006
  -0.351        -19.004
  -0.349        -19.003
  -0.347        -19.001
  -0.345        -18.999
  -0.343        -18.997
  -0.340        -18.996
  -0.338        -18.994
  -0.336        -18.992
  -0.334        -18.990
  -0.332        -18.989
  -0.330        -18.987
  -0.327        -18.985
  -0.325        -18.983
  -0.323        -18.982
  -0.321        -18.980
  -0.319        -18.978
  -0.316        -18.977
  -0.314        -18.975
  -0.312        -18.974
  -0.310        -18.972
  -0.308        -18.971
  -0.306        -18.969
  -0.303        -18.967
  -0.301        -18.966
  -0.299        -18.965
  -0.297        -18.963
  -0.295        -18.962
  -0.293        -18.961
  -0.290        -18.960
  -0.288        -18.959
  -0.286        -18.958
  -0.284        -18.956
  -0.282        -18.955
  -0.280        -18.954
  -0.277        -18.953
  -0.275        -18.952
  -0.273        -18.951
  -0.271        -18.951
  -0.269        -18.950
  -0.267        -18.949
  -0.264        -18.948
  -0.262        -18.947
  -0.260        -18.946
  -0.258        -18.946
  -0.256        -18.945
  -0.253        -18.944
  -0.251        -18.943
  -0.249        -18.942
  -0.247        -18.942
  -0.245        -18.941
  -0.243        -18.940
  -0.241        -18.939
  -0.238        -18.939
  -0.236        -18.938
  -0.234        -18.938
  -0.232        -18.937
  -0.230        -18.937
  -0.227        -18.936
  -0.225        -18.936
  -0.223        -18.935
  -0.221        -18.934
  -0.219        -18.934
  -0.217        -18.934
  -0.214        -18.933
  -0.212        -18.933
  -0.210        -18.932
  -0.208        -18.932
  -0.206        -18.931
  -0.204        -18.931
  -0.201        -18.931
  -0.199        -18.930
  -0.197        -18.930
  -0.195        -18.930
  -0.193        -18.930
  -0.191        -18.930
  -0.188        -18.930
  -0.186        -18.929
  -0.184        -18.929
  -0.182        -18.929
  -0.180        -18.929
  -0.178        -18.929
  -0.175        -18.929
  -0.173        -18.929
  -0.171        -18.929
  -0.169        -18.930
  -0.167        -18.930
  -0.164        -18.930
  -0.162        -18.930
  -0.160        -18.930
  -0.158        -18.930
  -0.156        -18.931
  -0.154        -18.931
  -0.151        -18.931
  -0.149        -18.932
  -0.147        -18.932
  -0.145        -18.932
  -0.143        -18.933
  -0.141        -18.933
  -0.138        -18.933
  -0.136        -18.934
  -0.134        -18.934
  -0.132        -18.934
  -0.130        -18.935
  -0.128        -18.935
  -0.125        -18.935
  -0.123        -18.936
  -0.121        -18.936
  -0.119        -18.937
  -0.117        -18.937
  -0.115        -18.937
  -0.112        -18.937
  -0.110        -18.938
  -0.108        -18.938
  -0.106        -18.938
  -0.104        -18.939
  -0.102        -18.939
  -0.099        -18.939
  -0.097        -18.939
  -0.095        -18.939
  -0.093        -18.940
  -0.091        -18.940
  -0.089        -18.940
  -0.086        -18.940
  -0.084        -18.940
  -0.082        -18.940
  -0.080        -18.940
  -0.078        -18.940
  -0.075        -18.941
  -0.073        -18.941
  -0.071        -18.941
  -0.069        -18.941
  -0.067        -18.941
  -0.065        -18.941
  -0.063        -18.941
  -0.060        -18.941
  -0.058        -18.941
  -0.056        -18.941
  -0.054        -18.941
  -0.052        -18.941
  -0.049        -18.941
  -0.047        -18.941
  -0.045        -18.941
  -0.043        -18.942
  -0.041        -18.942
  -0.039        -18.942
  -0.036        -18.942
  -0.034        -18.942
  -0.032        -18.942
  -0.030        -18.942
  -0.028        -18.942
  -0.026        -18.943
  -0.023        -18.943
  -0.021        -18.943
  -0.019        -18.943
  -0.017        -18.943
  -0.015        -18.943
  -0.013        -18.943
  -0.010        -18.943
  -0.008        -18.943
  -0.006        -18.943
  -0.004        -18.943
  -0.002        -18.944
   0.000        -18.944
   0.003        -18.944
   0.005        -18.944
   0.007        -18.944
   0.009        -18.944
   0.011        -18.944
   0.013        -18.944
   0.016        -18.944
   0.018        -18.945
   0.020        -18.945
   0.022        -18.945
   0.024        -18.945
   0.027        -18.945
   0.029        -18.945
   0.031        -18.945
   0.033        -18.945
   0.035        -18.945
   0.037        -18.945
   0.040        -18.945
   0.042        -18.945
   0.044        -18.945
   0.046        -18.946
   0.048        -18.946
   0.050        -18.946
   0.053        -18.946
   0.055        -18.946
   0.057        -18.946
   0.059        -18.946
   0.061        -18.946
   0.063        -18.946
   0.066        -18.946
   0.068        -18.946
   0.070        -18.946
   0.072        -18.947
   0.074        -18.946
   0.076        -18.946
   0.079        -18.946
   0.081        -18.946
   0.083        -18.946
   0.085        -18.946
   0.087        -18.946
   0.089        -18.946
   0.092        -18.946
   0.094        -18.945
   0.096        -18.945
   0.098        -18.946
   0.100        -18.946
   0.103        -18.946
   0.105        -18.946
   0.107        -18.946
   0.109        -18.946
   0.111        -18.946
   0.113        -18.946
   0.116        -18.946
   0.118        -18.946
   0.120        -18.947
   0.122        -18.947
   0.124        -18.947
   0.126        -18.948
   0.128        -18.948
   0.131        -18.948
   0.133        -18.949
   0.135        -18.949
   0.137        -18.950
   0.139        -18.950
   0.142        -18.951
   0.144        -18.951
   0.146        -18.951
   0.148        -18.952
   0.150        -18.952
   0.153        -18.953
   0.155        -18.953
   0.157        -18.954
   0.159        -18.954
   0.161        -18.955
   0.163        -18.955
   0.165        -18.956
   0.168        -18.956
   0.170        -18.956
   0.172        -18.957
   0.174        -18.958
   0.176        -18.958
   0.178        -18.958
   0.181        -18.959
   0.183        -18.960
   0.185        -18.960
   0.187        -18.961
   0.189        -18.961
   0.192        -18.962
   0.194        -18.962
   0.196        -18.963
   0.198        -18.963
   0.200        -18.964
   0.202        -18.964
   0.205        -18.965
   0.207        -18.965
   0.209        -18.966
   0.211        -18.967
   0.213        -18.967
   0.215        -18.968
   0.218        -18.968
   0.220        -18.969
   0.222        -18.969
   0.224        -18.970
   0.226        -18.970
   0.229        -18.971
   0.231        -18.972
   0.233        -18.972
   0.235        -18.973
   0.237        -18.973
   0.239        -18.974
   0.241        -18.975
   0.244        -18.975
   0.246        -18.976
   0.248        -18.977
   0.250        -18.977
   0.252        -18.978
   0.254        -18.979
   0.257        -18.979
   0.259        -18.980
   0.261        -18.981
   0.263        -18.982
   0.265        -18.982
   0.267        -18.983
   0.270        -18.984
   0.272        -18.985
   0.274        -18.985
   0.276        -18.986
   0.278        -18.987
   0.281        -18.988
   0.283        -18.989
   0.285        -18.989
   0.287        -18.990
   0.289        -18.991
   0.291        -18.992
   0.293        -18.993
   0.296        -18.994
   0.298        -18.995
   0.300        -18.996
   0.302        -18.997
   0.305        -18.998
   0.307        -18.999
   0.309        -19.000
   0.311        -19.001
   0.313        -19.002
   0.315        -19.003
   0.318        -19.004
   0.320        -19.005
   0.322        -19.006
   0.324        -19.007
   0.326        -19.008
   0.328        -19.009
   0.330        -19.010
   0.333        -19.011
   0.335        -19.012
   0.337        -19.013
   0.339        -19.014
   0.341        -19.015
   0.344        -19.017
   0.346        -19.018
   0.348        -19.019
   0.350        -19.020
   0.352        -19.021
   0.354        -19.022
   0.356        -19.023
   0.359        -19.025
   0.361        -19.026
   0.363        -19.027
   0.365        -19.028
   0.367        -19.029
   0.369        -19.030
   0.372        -19.031
   0.374        -19.033
   0.376        -19.034
   0.378        -19.035
   0.380        -19.036
   0.383        -19.037
   0.385        -19.038
   0.387        -19.040
   0.389        -19.041
   0.391        -19.042
   0.393        -19.044
   0.396        -19.045
   0.398        -19.046
   0.400        -19.048
   0.402        -19.049
   0.404        -19.051
   0.406        -19.052
   0.409        -19.054
   0.411        -19.056
   0.413        -19.057
   0.415        -19.059
   0.417        -19.061
   0.420        -19.062
   0.422        -19.064
   0.424        -19.066
   0.426        -19.067
   0.428        -19.069
   0.430        -19.071
   0.432        -19.073
   0.435        -19.075
   0.437        -19.076
   0.439        -19.078
   0.441        -19.080
   0.443        -19.082
   0.446        -19.084
   0.448        -19.086
   0.450        -19.088
   0.452        -19.090
   0.454        -19.092
   0.456        -19.094
   0.459        -19.096
   0.461        -19.099
   0.463        -19.101
   0.465        -19.103
   0.467        -19.105
   0.469        -19.107
   0.472        -19.110
   0.474        -19.111
   0.476        -19.113
   0.478        -19.116
   0.480        -19.118
   0.482        -19.120
   0.485        -19.122
   0.487        -19.124
   0.489        -19.126
   0.491        -19.126
   0.493        -19.127
   0.495        -19.128
   0.498        -19.128
   0.500        -19.129
   0.502        -19.129
   0.504        -19.130
   0.506        -19.131
   0.510        -19.131
   0.512        -19.131
   0.513        -19.131
   0.515        -19.130
   0.517        -19.130
   0.519        -19.129
   0.522        -19.129
   0.524        -19.128
   0.526        -19.128
   0.528        -19.127
   0.530        -19.127
   0.532        -19.126
   0.535        -19.126
   0.537        -19.125
   0.539        -19.124
   0.541        -19.124
   0.543        -19.123
   0.545        -19.123
   0.548        -19.122
   0.550        -19.122
   0.552        -19.121
   0.554        -19.120
   0.556        -19.120
   0.558        -19.119
   0.561        -19.119
   0.563        -19.118
   0.565        -19.117
   0.567        -19.117
   0.569        -19.116
   0.572        -19.116
   0.574        -19.115
   0.576        -19.114
   0.578        -19.114
   0.580        -19.113
   0.582        -19.112
   0.585        -19.112
   0.587        -19.111
   0.589        -19.110
   0.591        -19.110
   0.593        -19.109
   0.595        -19.109
   0.598        -19.109
   0.600        -19.108
   0.602        -19.108
   0.604        -19.108
   0.606        -19.107
   0.608        -19.107
   0.611        -19.107
   0.613        -19.107
   0.615        -19.106
   0.617        -19.106
   0.619        -19.105
   0.621        -19.105
   0.624        -19.104
   0.626        -19.104
   0.628        -19.104
   0.630        -19.103
   0.632        -19.102
   0.634        -19.102
   0.637        -19.101
   0.639        -19.101
   0.641        -19.100
   0.643        -19.099
   0.645        -19.099
   0.647        -19.098
   0.650        -19.097
   0.652        -19.097
   0.654        -19.096
   0.656        -19.095
   0.658        -19.094
   0.660        -19.094
   0.663        -19.093
   0.665        -19.092
   0.667        -19.092
   0.669        -19.091
   0.671        -19.090
   0.673        -19.089
   0.676        -19.089
   0.678        -19.088
   0.680        -19.088
   0.682        -19.087
   0.684        -19.086
   0.687        -19.086
   0.689        -19.085
   0.691        -19.084
   0.693        -19.084
   0.695        -19.083
   0.697        -19.083
   0.700        -19.083
   0.702        -19.082
   0.704        -19.082
   0.706        -19.082
   0.708        -19.082
   0.710        -19.081
   0.713        -19.081
   0.715        -19.081
   0.717        -19.081
   0.719        -19.081
   0.721        -19.082
   0.723        -19.083
   0.726        -19.083
   0.728        -19.084
   0.730        -19.085
   0.732        -19.086
   0.734        -19.086
   0.736        -19.087
   0.739        -19.088
   0.741        -19.089
   0.743        -19.090
   0.745        -19.091
   0.747        -19.092
   0.750        -19.093
   0.752        -19.094
   0.754        -19.095
   0.756        -19.096
   0.758        -19.098
   0.760        -19.098
   0.762        -19.100
   0.765        -19.101
   0.767        -19.102
   0.769        -19.103
   0.771        -19.105
   0.773        -19.106
   0.776        -19.107
   0.778        -19.108
   0.780        -19.110
   0.782        -19.111
   0.784        -19.113
   0.786        -19.114
   0.789        -19.116
   0.791        -19.117
   0.793        -19.119
   0.795        -19.121
   0.797        -19.122
   0.799        -19.124
   0.802        -19.126
   0.804        -19.127
   0.806        -19.129
   0.808        -19.131
   0.810        -19.133
   0.812        -19.135
   0.815        -19.137
   0.817        -19.139
   0.819        -19.141
   0.821        -19.143
   0.823        -19.145
   0.825        -19.147
   0.828        -19.150
   0.830        -19.152
   0.832        -19.154
   0.834        -19.156
   0.836        -19.159
   0.838        -19.161
   0.841        -19.163
   0.843        -19.165
   0.845        -19.168
   0.847        -19.170
   0.849        -19.173
   0.852        -19.175
   0.854        -19.178
   0.856        -19.180
   0.858        -19.183
   0.860        -19.185
   0.862        -19.188
   0.865        -19.190
   0.867        -19.193
   0.869        -19.195
   0.871        -19.198
   0.873        -19.201
   0.875        -19.203
   0.878        -19.206
   0.880        -19.209
   0.882        -19.211
   0.884        -19.214
   0.886        -19.217
   0.888        -19.220
   0.891        -19.223
   0.893        -19.226
   0.895        -19.230
   0.897        -19.233
   0.899        -19.236
   0.901        -19.240
   0.904        -19.243
   0.906        -19.246
   0.908        -19.250
   0.910        -19.254
   0.912        -19.258
   0.915        -19.262
   0.917        -19.266
   0.919        -19.270
   0.921        -19.274
   0.923        -19.277
   0.925        -19.282
   0.928        -19.286
   0.930        -19.291
   0.932        -19.296
   0.934        -19.300
   0.936        -19.305
   0.938        -19.310
   0.941        -19.315
   0.943        -19.320
   0.945        -19.324
   0.947        -19.329
   0.949        -19.336
   0.951        -19.342
   0.954        -19.349
   0.956        -19.355
   0.958        -19.362
   0.960        -19.368
   0.962        -19.375
   0.964        -19.381
   0.967        -19.388
   0.969        -19.394
   0.971        -19.399
   0.973        -19.404
   0.975        -19.409
   0.977        -19.414
   0.980        -19.419
   0.982        -19.424
   0.984        -19.429
   0.986        -19.434
   0.988        -19.444
   0.990        -19.454
   0.993        -19.460
   0.995        -19.466
   0.997        -19.471
   0.999        -19.477
   1.001        -19.484
   1.004        -19.489
   1.006        -19.495
   1.008        -19.501
   1.010        -19.508
   1.012        -19.520
   1.014        -19.531
   1.017        -19.543
   1.019        -19.554
   1.021        -19.566
   1.023        -19.577
   1.025        -19.588
   1.027        -19.600
   1.030        -19.612
   1.032        -19.627
   1.034        -19.643
   1.036        -19.660
   1.038        -19.677
   1.040        -19.694
   1.043        -19.710
   1.045        -19.727
   1.047        -19.744
   1.049        -19.761
   1.051        -19.779
   1.053        -19.805
   1.056        -19.833
   1.058        -19.860
   1.060        -19.887
   1.062        -19.915
   1.064        -19.942
   1.066        -19.970
   1.069        -19.997
   1.071        -20.024
   1.073        -20.069
   1.075        -20.130
   1.077        -20.192
   1.079        -20.253
   1.082        -20.315
   1.084        -20.376
   1.086        -20.438
   1.088        -20.499
   1.090        -20.561
   1.093        -20.624
   1.095        -20.703
   1.097        -20.786
   1.099        -20.869
   1.101        -20.952
   1.103        -21.035
   1.106        -21.118
   1.108        -21.201
   1.110        -21.284
   1.112        -21.378
   1.114        -21.428
   1.117        -21.431
   1.119        -21.435
   1.121        -21.438
   1.123        -21.441
   1.125        -21.444
   1.127        -21.447
   1.129        -21.451
   1.131        -21.454
   1.134        -21.457
   1.136        -21.460
   1.138        -21.463
   1.140        -21.466
   1.143        -21.469
   1.145        -21.472
   1.147        -21.475
   1.149        -21.478
   1.151        -21.481
   1.153        -21.484
   1.155        -21.486
   1.158        -21.489
   1.160        -21.491
   1.162        -21.494
   1.164        -21.497
   1.166        -21.499
   1.169        -21.501
   1.171        -21.504
   1.173        -21.506
   1.175        -21.509
   1.177        -21.512
   1.180        -21.514
   1.181        -21.516
   1.184        -21.519
   1.186        -21.522
   1.188        -21.525
   1.190        -21.527
   1.192        -21.530
   1.195        -21.532
   1.197        -21.535
   1.199        -21.537
   1.201        -21.540
   1.203        -21.542
   1.205        -21.545
   1.208        -21.547
   1.210        -21.550
   1.212        -21.552
   1.214        -21.555
   1.216        -21.557
   1.218        -21.560
   1.220        -21.562
   1.223        -21.565
   1.225        -21.567
   1.227        -21.569
   1.229        -21.572
   1.232        -21.574
   1.234        -21.576
   1.236        -21.579
   1.238        -21.581
   1.240        -21.583
   1.242        -21.585
   1.245        -21.587
   1.247        -21.589
   1.249        -21.591
   1.251        -21.593
   1.253        -21.594
   1.255        -21.597
   1.258        -21.598
   1.260        -21.601
   1.262        -21.603
   1.264        -21.605
   1.266        -21.607
   1.268        -21.610
   1.270        -21.612
   1.273        -21.614
   1.275        -21.617
   1.277        -21.619
   1.279        -21.621
   1.281        -21.623
   1.284        -21.626
   1.286        -21.629
   1.288        -21.632
   1.290        -21.634
   1.292        -21.637
   1.294        -21.639
   1.297        -21.642
   1.299        -21.645
   1.301        -21.647
   1.303        -21.651
   1.305        -21.654
   1.307        -21.657
   1.310        -21.660
   1.312        -21.663
   1.314        -21.667
   1.316        -21.670
   1.318        -21.673
   1.320        -21.676
   1.323        -21.680
   1.325        -21.684
   1.327        -21.687
   1.329        -21.691
   1.331        -21.695
   1.334        -21.699
   1.336        -21.702
   1.338        -21.706
   1.340        -21.710
   1.342        -21.714
   1.344        -21.718
   1.346        -21.723
   1.349        -21.727
   1.351        -21.732
   1.353        -21.736
   1.355        -21.740
   1.357        -21.745
   1.359        -21.749
   1.362        -21.753
   1.364        -21.758
   1.366        -21.762
   1.368        -21.766
   1.370        -21.770
   1.373        -21.774
   1.375        -21.778
   1.377        -21.782
   1.379        -21.786
   1.381        -21.790
   1.383        -21.794
   1.386        -21.796
   1.388        -21.798
   1.390        -21.800
   1.392        -21.802
   1.394        -21.805
   1.397        -21.807
   1.399        -21.809
   1.401        -21.812
   1.403        -21.814
   1.405        -21.817
   1.407        -21.819
   1.410        -21.822
   1.412        -21.825
   1.414        -21.827
   1.416        -21.830
   1.418        -21.833
   1.420        -21.836
   1.423        -21.838
   1.425        -21.841
   1.427        -21.844
   1.429        -21.847
   1.431        -21.849
   1.433        -21.852
   1.436        -21.855
   1.438        -21.858
   1.440        -21.861
   1.442        -21.864
   1.444        -21.867
   1.446        -21.870
   1.449        -21.873
   1.451        -21.875
   1.453        -21.878
   1.455        -21.881
   1.457        -21.884
   1.460        -21.887
   1.462        -21.890
   1.464        -21.893
   1.466        -21.896
   1.468        -21.898
   1.470        -21.900
   1.472        -21.902
   1.475        -21.904
   1.477        -21.906
   1.479        -21.909
   1.481        -21.911
   1.483        -21.913
   1.486        -21.915
   1.488        -21.916
   1.490        -21.917
   1.492        -21.918
   1.494        -21.919
   1.496        -21.920
   1.498        -21.921
   1.501        -21.921
   1.503        -21.923
   1.505        -21.923
   1.507        -21.924
   1.509        -21.924
   1.512        -21.922
   1.514        -21.921
   1.516        -21.920
   1.518        -21.919
   1.520        -21.918
   1.522        -21.917
   1.525        -21.916
   1.527        -21.915
   1.529        -21.913
   1.531        -21.909
   1.533        -21.905
   1.535        -21.901
   1.538        -21.898
   1.540        -21.894
   1.542        -21.890
   1.544        -21.886
   1.546        -21.883
   1.549        -21.879
   1.551        -21.874
   1.553        -21.869
   1.555        -21.863
   1.557        -21.858
   1.559        -21.852
   1.561        -21.847
   1.564        -21.841
   1.566        -21.836
   1.568        -21.830
   1.570        -21.824
   1.572        -21.816
   1.575        -21.809
   1.577        -21.801
   1.579        -21.794
   1.581        -21.786
   1.583        -21.778
   1.585        -21.771
   1.588        -21.763
   1.590        -21.868
   1.592        -22.136
   1.594        -22.141
   1.596        -22.146
   1.598        -22.151
   1.601        -22.155
   1.603        -22.160
   1.605        -22.165
   1.607        -22.170
   1.609        -22.174
   1.611        -22.179
   1.614        -22.185
   1.616        -22.192
   1.618        -22.198
   1.620        -22.204
   1.622        -22.211
   1.624        -22.217
   1.627        -22.224
   1.629        -22.230
   1.631        -22.236
   1.633        -22.243
   1.635        -22.252
   1.637        -22.260
   1.640        -22.268
   1.642        -22.276
   1.644        -22.285
   1.646        -22.293
   1.648        -22.301
   1.651        -22.309
   1.653        -22.318
   1.655        -22.328
   1.657        -22.340
   1.659        -22.352
   1.661        -22.363
   1.664        -22.375
   1.666        -22.387
   1.668        -22.398
   1.670        -22.410
   1.672        -22.421
   1.674        -22.434
   1.676        -22.453
   1.679        -22.472
   1.681        -22.490
   1.683        -22.509
   1.685        -22.528
   1.687        -22.547
   1.690        -22.566
   1.692        -22.585
   1.694        -22.604
   1.696        -22.638
   1.699        -22.690
   1.701        -22.736
   1.703        -22.778
   1.705        -22.821
   1.707        -22.866
   1.709        -22.912
   1.711        -22.958
   1.714        -23.008
   1.716        -23.022
   1.718        -23.051
   1.720        -23.080
   1.722        -23.116
   1.724        -23.151
   1.727        -23.186
   1.729        -23.221
   1.731        -23.257
   1.733        -23.292
   1.735        -23.327
   1.737        -23.358
   1.739        -23.382
   1.742        -23.406
   1.744        -23.430
   1.746        -23.454
   1.748        -23.478
   1.750        -23.501
   1.753        -23.525
   1.755        -23.549
   1.757        -23.572
   1.759        -23.587
   1.761        -23.598
   1.763        -23.610
   1.766        -23.621
   1.768        -23.633
   1.770        -23.644
   1.772        -23.656
   1.774        -23.668
   1.776        -23.679
   1.779        -23.689
   1.781        -23.693
   1.783        -23.698
   1.785        -23.702
   1.787        -23.706
   1.789        -23.711
   1.792        -23.715
   1.794        -23.719
   1.796        -23.724
   1.798        -23.728
   1.800        -23.731
   1.802        -23.733
   1.805        -23.734
   1.807        -23.736
   1.809        -23.737
   1.811        -23.739
   1.813        -23.741
   1.816        -23.742
   1.818        -23.744
   1.820        -23.745
   1.822        -23.746
   1.824        -23.747
   1.826        -23.748
   1.829        -23.748
   1.831        -23.749
   1.833        -23.750
   1.835        -23.751
   1.837        -23.751
   1.839        -23.752
   1.842        -23.753
   1.844        -23.753
   1.846        -23.754
   1.848        -23.755
   1.850        -23.755
   1.852        -23.756
   1.855        -23.756
   1.857        -23.757
   1.859        -23.757
   1.861        -23.758
   1.863        -23.759
   1.865        -23.759
   1.868        -23.760
   1.870        -23.760
   1.872        -23.761
   1.874        -23.761
   1.876        -23.762
   1.878        -23.762
   1.881        -23.763
   1.883        -23.763
   1.885        -23.764
   1.887        -23.764
   1.889        -23.765
   1.891        -23.765
   1.894        -23.766
   1.896        -23.766
   1.898        -23.767
   1.900        -23.767
   1.902        -23.768
   1.905        -23.769
   1.907        -23.769
   1.909        -23.770
   1.911        -23.770
   1.913        -23.771
   1.915        -23.772
   1.918        -23.772
   1.920        -23.773
   1.922        -23.773
   1.924        -23.774
   1.926        -23.775
   1.928        -23.775
   1.931        -23.776
   1.933        -23.777
   1.935        -23.777
   1.937        -23.778
   1.939        -23.779
   1.941        -23.779
   1.944        -23.780
   1.946        -23.781
   1.948        -23.781
   1.950        -23.782
   1.952        -23.783
   1.954        -23.784
   1.957        -23.784
   1.959        -23.785
   1.961        -23.786
   1.963        -23.787
   1.965        -23.787
   1.967        -23.788
   1.970        -23.789
   1.972        -23.790
   1.974        -23.790
   1.976        -23.791
   1.978        -23.792
   1.980        -23.793
   1.983        -23.793
   1.985        -23.794
   1.987        -23.795
   1.989        -23.796
   1.991        -23.797
   1.993        -23.798
   1.996        -23.798
   1.998        -23.799
   2.000        -23.800
   2.002        -23.801
   2.004        -23.802
   2.007        -23.803
   2.009        -23.804
   2.011        -23.804
   2.013        -23.805
   2.015        -23.806
   2.017        -23.807
   2.020        -23.808
   2.022        -23.809
   2.024        -23.810
   2.026        -23.811
   2.028        -23.812
   2.030        -23.813
   2.033        -23.814
   2.035        -23.814
   2.037        -23.815
   2.039        -23.816
   2.041        -23.817
   2.043        -23.818
   2.046        -23.819
   2.048        -23.820
   2.050        -23.821
   2.052        -23.822
   2.054        -23.823
   2.056        -23.823
   2.059        -23.824
   2.061        -23.825
   2.063        -23.826
   2.065        -23.827
   2.067        -23.828
   2.069        -23.829
   2.072        -23.830
   2.074        -23.831
   2.076        -23.832
   2.078        -23.833
   2.080        -23.834
   2.083        -23.835
   2.085        -23.836
   2.087        -23.836
   2.089        -23.837
   2.091        -23.838
   2.093        -23.839
   2.096        -23.840
   2.098        -23.841
   2.100        -23.842
   2.102        -23.843
   2.104        -23.844
   2.106        -23.845
   2.109        -23.846
   2.111        -23.847
   2.113        -23.848
   2.115        -23.849
   2.117        -23.850
   2.120        -23.851
   2.122        -23.852
   2.124        -23.852
   2.126        -23.853
   2.128        -23.854
   2.130        -23.855
   2.133        -23.856
   2.135        -23.856
   2.137        -23.857
   2.139        -23.858
   2.141        -23.859
   2.143        -23.859
   2.145        -23.860
   2.148        -23.861
   2.150        -23.861
   2.152        -23.862
   2.154        -23.863
   2.157        -23.864
   2.158        -23.864
   2.161        -23.865
   2.163        -23.865
   2.165        -23.866
   2.167        -23.867
   2.169        -23.867
   2.172        -23.868
   2.174        -23.869
   2.176        -23.869
   2.178        -23.870
   2.180        -23.871
   2.183        -23.871
   2.185        -23.872
   2.187        -23.872
   2.189        -23.873
   2.191        -23.873
   2.193        -23.874
   2.195        -23.874
   2.197        -23.875
   2.200        -23.875
   2.202        -23.876
   2.204        -23.877
   2.206        -23.877
   2.208        -23.878
   2.211        -23.878
   2.213        -23.879
   2.215        -23.879
   2.217        -23.879
   2.219        -23.880
   2.221        -23.880
   2.224        -23.881
   2.226        -23.881
   2.228        -23.881
   2.230        -23.882
   2.232        -23.882
   2.235        -23.883
   2.237        -23.883
   2.239        -23.883
   2.241        -23.883
   2.243        -23.884
   2.245        -23.884
   2.247        -23.884
   2.250        -23.884
   2.252        -23.885
   2.254        -23.885
   2.256        -23.885
   2.259        -23.886
   2.261        -23.886
   2.263        -23.886
   2.265        -23.886
   2.267        -23.886
   2.269        -23.886
   2.271        -23.886
   2.274        -23.886
   2.276        -23.886
   2.278        -23.887
   2.280        -23.887
   2.282        -23.887
   2.284        -23.887
   2.287        -23.887
   2.289        -23.887
   2.291        -23.887
   2.293        -23.887
   2.295        -23.887
   2.297        -23.887
   2.299        -23.887
   2.302        -23.887
   2.304        -23.887
   2.306        -23.887
   2.308        -23.887
   2.310        -23.886
   2.313        -23.886
   2.315        -23.886
   2.317        -23.886
   2.319        -23.886
   2.321        -23.886
   2.323        -23.886
   2.326        -23.885
   2.328        -23.885
   2.330        -23.885
   2.332        -23.885
   2.334        -23.884
   2.337        -23.884
   2.339        -23.884
   2.341        -23.884
   2.343        -23.884
   2.345        -23.883
   2.347        -23.883
   2.349        -23.882
   2.352        -23.882
   2.354        -23.882
   2.356        -23.881
   2.358        -23.881
   2.360        -23.881
   2.363        -23.881
   2.365        -23.880
   2.367        -23.880
   2.369        -23.879
   2.371        -23.879
   2.374        -23.879
   2.376        -23.878
   2.378        -23.878
   2.380        -23.877
   2.382        -23.877
   2.384        -23.877
   2.386        -23.876
   2.389        -23.876
   2.391        -23.876
   2.393        -23.876
   2.395        -23.875
   2.397        -23.875
   2.400        -23.875
   2.402        -23.875
   2.404        -23.874
   2.406        -23.875
   2.408        -23.875
   2.410        -23.876
   2.413        -23.877
   2.415        -23.877
   2.417        -23.877
   2.419        -23.878
   2.421        -23.878
   2.423        -23.878
   2.425        -23.879
   2.428        -23.879
   2.430        -23.879
   2.432        -23.879
   2.434        -23.880
   2.436        -23.880
   2.439        -23.880
   2.441        -23.880
   2.443        -23.881
   2.445        -23.881
   2.447        -23.880
   2.449        -23.879
   2.452        -23.879
   2.454        -23.878
   2.456        -23.878
   2.458        -23.877
   2.460        -23.877
   2.462        -23.876
   2.465        -23.875
   2.467        -23.875
   2.469        -23.874
   2.471        -23.874
   2.473        -23.873
   2.475        -23.872
   2.478        -23.872
   2.480        -23.870
   2.482        -23.870
   2.484        -23.869
   2.486        -23.869
   2.489        -23.868
   2.491        -23.867
   2.493        -23.866
   2.495        -23.866
   2.497        -23.865
   2.499        -23.864
   2.502        -23.864
   2.504        -23.863
   2.506        -23.862
   2.508        -23.861
   2.510        -23.861
   2.512        -23.860
   2.514        -23.859
   2.517        -23.859
   2.519        -23.858
   2.521        -23.858
   2.523        -23.857
   2.525        -23.856
   2.528        -23.856
   2.530        -23.855
   2.532        -23.855
   2.534        -23.854
   2.536        -23.853
   2.538        -23.853
   2.541        -23.852
   2.543        -23.852
   2.545        -23.851
   2.547        -23.850
   2.549        -23.850
   2.552        -23.850
   2.554        -23.849
   2.556        -23.849
   2.558        -23.848
   2.560        -23.848
   2.562        -23.847
   2.565        -23.847
   2.567        -23.846
   2.569        -23.846
   2.571        -23.846
   2.573        -23.846
   2.575        -23.845
   2.578        -23.845
   2.580        -23.845
   2.582        -23.845
   2.584        -23.845
   2.586        -23.844
   2.588        -23.844
   2.590        -23.844
   2.593        -23.844
   2.595        -23.844
   2.597        -23.844
   2.599        -23.845
   2.601        -23.845
   2.604        -23.845
   2.606        -23.845
   2.608        -23.846
   2.610        -23.846
   2.612        -23.846
   2.614        -23.847
   2.617        -23.848
   2.619        -23.849
   2.621        -23.850
   2.623        -23.851
   2.625        -23.852
   2.627        -23.853
   2.630        -23.854
   2.632        -23.855
   2.634        -23.857
   2.636        -23.859
   2.638        -23.861
   2.641        -23.864
   2.643        -23.866
   2.645        -23.868
   2.647        -23.870
   2.649        -23.872
   2.651        -23.875
   2.654        -23.878
   2.656        -23.882
   2.658        -23.886
   2.660        -23.891
   2.662        -23.895
   2.664        -23.899
   2.666        -23.903
   2.669        -23.908
   2.671        -23.912
   2.673        -23.916
   2.675        -23.922
   2.677        -23.928
   2.680        -23.934
   2.682        -23.941
   2.684        -23.947
   2.686        -23.953
   2.688        -23.959
   2.690        -23.966
   2.693        -23.972
   2.695        -23.978
   2.697        -23.985
   2.699        -23.991
   2.701        -23.998
   2.703        -24.004
   2.706        -24.010
   2.708        -24.016
   2.710        -24.023
   2.712        -24.029
   2.714        -24.036
   2.716        -24.041
   2.719        -24.047
   2.721        -24.052
   2.723        -24.057
   2.725        -24.063
   2.727        -24.068
   2.729        -24.074
   2.732        -24.079
   2.734        -24.084
   2.736        -24.090
   2.738        -24.094
   2.740        -24.099
   2.743        -24.104
   2.745        -24.109
   2.747        -24.114
   2.749        -24.118
   2.751        -24.123
   2.753        -24.128
   2.756        -24.132
   2.758        -24.137
   2.760        -24.141
   2.762        -24.146
   2.764        -24.150
   2.766        -24.155
   2.769        -24.159
   2.771        -24.163
   2.773        -24.168
   2.775        -24.172
   2.777        -24.176
   2.779        -24.181
   2.782        -24.185
   2.784        -24.189
   2.786        -24.193
   2.788        -24.197
   2.790        -24.201
   2.792        -24.205
   2.795        -24.208
   2.797        -24.212
   2.799        -24.216
   2.801        -24.220
   2.803        -24.224
   2.805        -24.227
   2.808        -24.231
   2.810        -24.235
   2.812        -24.238
   2.814        -24.242
   2.816        -24.246
   2.819        -24.249
   2.821        -24.253
   2.823        -24.256
   2.825        -24.260
   2.827        -24.263
   2.829        -24.266
   2.832        -24.269
   2.834        -24.273
   2.836        -24.276
   2.838        -24.279
   2.840        -24.283
   2.842        -24.286
   2.845        -24.288
   2.847        -24.291
   2.849        -24.294
   2.851        -24.297
   2.853        -24.300
   2.855        -24.303
   2.858        -24.306
   2.860        -24.309
   2.862        -24.311
   2.864        -24.314
   2.866        -24.316
   2.868        -24.319
   2.871        -24.321
   2.873        -24.324
   2.875        -24.327
   2.877        -24.329
   2.879        -24.331
   2.881        -24.334
   2.884        -24.336
   2.886        -24.339
   2.888        -24.341
   2.890        -24.343
   2.892        -24.346
   2.894        -24.348
   2.897        -24.351
   2.899        -24.353
   2.901        -24.355
   2.903        -24.358
   2.905        -24.359
   2.908        -24.361
   2.910        -24.363
   2.912        -24.365
   2.914        -24.367
   2.916        -24.369
   2.918        -24.371
   2.921        -24.373
   2.923        -24.375
   2.925        -24.377
   2.927        -24.378
   2.929        -24.380
   2.931        -24.381
   2.934        -24.383
   2.936        -24.385
   2.938        -24.386
   2.940        -24.388
   2.942        -24.389
   2.944        -24.391
   2.947        -24.392
   2.949        -24.394
   2.951        -24.395
   2.953        -24.396
   2.955        -24.398
   2.957        -24.399
   2.960        -24.400
   2.962        -24.402
   2.964        -24.403
   2.966        -24.405
   2.968        -24.406
   2.970        -24.407
   2.973        -24.408
   2.975        -24.410
   2.977        -24.411
   2.979        -24.412
   2.981        -24.414
   2.984        -24.415
   2.986        -24.416
   2.988        -24.417
   2.990        -24.418
   2.992        -24.420
   2.994        -24.421
   2.997        -24.422
   2.999        -24.423
   3.001        -24.425
   3.003        -24.426
   3.005        -24.427
   3.007        -24.428
   3.010        -24.429
   3.012        -24.430
   3.014        -24.432
   3.016        -24.433
   3.018        -24.434
   3.020        -24.435
   3.023        -24.436
   3.025        -24.437
   3.027        -24.438
   3.029        -24.439
   3.031        -24.441
   3.033        -24.442
   3.036        -24.443
   3.038        -24.444
   3.040        -24.445
   3.042        -24.446
   3.044        -24.447
   3.046        -24.449
   3.049        -24.450
   3.051        -24.451
   3.053        -24.452
   3.055        -24.453
   3.057        -24.454
   3.060        -24.455
   3.062        -24.456
   3.064        -24.457
   3.066        -24.458
   3.068        -24.459
   3.070        -24.460
   3.073        -24.461
   3.075        -24.463
   3.077        -24.464
   3.079        -24.464
   3.081        -24.466
   3.083        -24.467
   3.086        -24.468
   3.088        -24.469
   3.090        -24.470
   3.092        -24.471
   3.094        -24.472
   3.096        -24.473
   3.099        -24.474
   3.101        -24.475
   3.103        -24.476
   3.105        -24.477
   3.107        -24.478
   3.109        -24.479
   3.112        -24.480
   3.114        -24.481
   3.116        -24.482
   3.118        -24.483
   3.120        -24.484
   3.123        -24.485
   3.125        -24.486
   3.127        -24.487
   3.129        -24.488
   3.131        -24.488
   3.133        -24.490
   3.136        -24.491
   3.138        -24.492
   3.140        -24.493
   3.142        -24.494
   3.144        -24.495
   3.146        -24.496
   3.149        -24.497
   3.151        -24.498
   3.153        -24.499
   3.155        -24.500
   3.157        -24.501
   3.159        -24.502
   3.162        -24.503
   3.164        -24.504
   3.166        -24.505
   3.168        -24.506
   3.170        -24.507
   3.172        -24.508
   3.175        -24.509
   3.177        -24.510
   3.179        -24.511
   3.181        -24.512
   3.183        -24.513
   3.185        -24.514
   3.188        -24.515
   3.190        -24.516
   3.192        -24.517
   3.194        -24.518
   3.196        -24.519
   3.199        -24.520
   3.201        -24.521
   3.203        -24.522
   3.205        -24.523
   3.207        -24.524
   3.209        -24.525
   3.212        -24.526
   3.214        -24.527
   3.216        -24.528
   3.218        -24.529
   3.220        -24.530
   3.222        -24.530
   3.225        -24.531
   3.227        -24.532
   3.229        -24.533
   3.231        -24.534
   3.233        -24.535
   3.236        -24.536
   3.237        -24.537
   3.240        -24.538
   3.242        -24.539
   3.244        -24.539
   3.246        -24.540
   3.248        -24.541
   3.251        -24.542
   3.253        -24.543
   3.255        -24.543
   3.257        -24.544
   3.259        -24.545
   3.261        -24.546
   3.263        -24.546
   3.266        -24.547
   3.268        -24.548
   3.270        -24.549
   3.272        -24.549
   3.274        -24.550
   3.277        -24.551
   3.279        -24.552
   3.281        -24.552
   3.283        -24.553
   3.285        -24.554
   3.287        -24.554
   3.290        -24.555
   3.292        -24.555
   3.294        -24.556
   3.296        -24.557
   3.298        -24.558
   3.301        -24.559
   3.303        -24.560
   3.305        -24.561
   3.307        -24.562
   3.309        -24.564
   3.311        -24.565
   3.313        -24.566
   3.316        -24.567
   3.318        -24.568
   3.320        -24.570
   3.322        -24.571
   3.324        -24.572
   3.327        -24.574
   3.329        -24.575
   3.331        -24.576
   3.333        -24.577
   3.335        -24.578
   3.337        -24.579
   3.340        -24.580
   3.342        -24.582
   3.344        -24.583
   3.346        -24.584
   3.348        -24.585
   3.350        -24.586
   3.352        -24.587
   3.355        -24.589
   3.357        -24.590
   3.359        -24.591
   3.361        -24.592
   3.363        -24.593
   3.366        -24.594
   3.368        -24.596
   3.370        -24.597
   3.372        -24.598
   3.374        -24.599
   3.376        -24.600
   3.379        -24.601
   3.381        -24.603
   3.383        -24.604
   3.385        -24.605
   3.387        -24.606
   3.389        -24.607
   3.392        -24.608
   3.394        -24.609
   3.396        -24.610
   3.398        -24.611
   3.400        -24.612
   3.402        -24.613
   3.405        -24.614
   3.407        -24.616
   3.409        -24.617
   3.411        -24.618
   3.413        -24.619
   3.416        -24.620
   3.418        -24.621
   3.420        -24.622
   3.422        -24.623
   3.424        -24.624
   3.426        -24.625
   3.429        -24.626
   3.431        -24.627
   3.433        -24.628
   3.435        -24.629
   3.437        -24.630
   3.439        -24.631
   3.442        -24.632
   3.444        -24.633
   3.446        -24.635
   3.448        -24.636
   3.450        -24.637
   3.452        -24.638
   3.455        -24.639
   3.457        -24.640
   3.459        -24.641
   3.461        -24.642
   3.463        -24.643
   3.466        -24.644
   3.468        -24.645
   3.470        -24.646
   3.472        -24.647
   3.474        -24.648
   3.476        -24.649
   3.478        -24.650
   3.481        -24.651
   3.483        -24.652
   3.485        -24.653
   3.487        -24.654
   3.489        -24.655
   3.492        -24.656
   3.494        -24.657
   3.496        -24.658
   3.498        -24.659
   3.500        -24.660
   3.502        -24.661
   3.505        -24.662
   3.507        -24.663
   3.509        -24.664
   3.511        -24.665
   3.513        -24.666
   3.515        -24.667
   3.518        -24.668
   3.520        -24.669
   3.522        -24.670
   3.524        -24.671
   3.526        -24.672
   3.528        -24.673
   3.531        -24.674
   3.533        -24.675
   3.535        -24.676
   3.537        -24.677
   3.539        -24.678
   3.541        -24.679
   3.544        -24.680
   3.546        -24.681
   3.548        -24.681
   3.550        -24.682
   3.552        -24.683
   3.555        -24.684
   3.557        -24.685
   3.559        -24.686
   3.561        -24.687
   3.563        -24.688
   3.565        -24.689
   3.568        -24.690
   3.570        -24.690
   3.572        -24.691
   3.574        -24.692
   3.576        -24.693
   3.578        -24.694
   3.581        -24.695
   3.583        -24.696
   3.585        -24.697
   3.587        -24.698
   3.589        -24.699
   3.591        -24.699
   3.594        -24.700
   3.596        -24.701
   3.598        -24.702
   3.600        -24.703
   3.602        -24.704
   3.604        -24.705
   3.607        -24.705
   3.609        -24.706
   3.611        -24.707
   3.613        -24.708
   3.615        -24.709
   3.617        -24.709
   3.620        -24.710
   3.622        -24.711
   3.624        -24.712
   3.626        -24.713
   3.628        -24.713
   3.630        -24.714
   3.633        -24.715
   3.635        -24.716
   3.637        -24.717
   3.639        -24.717
   3.641        -24.718
   3.644        -24.719
   3.646        -24.720
   3.648        -24.721
   3.650        -24.722
   3.652        -24.722
   3.654        -24.723
   3.657        -24.724
   3.659        -24.725
   3.661        -24.725
   3.663        -24.726
   3.665        -24.727
   3.667        -24.728
   3.670        -24.729
   3.672        -24.729
   3.674        -24.730
   3.676        -24.731
   3.678        -24.732
   3.680        -24.732
   3.683        -24.733
   3.685        -24.734
   3.687        -24.735
   3.689        -24.736
   3.691        -24.737
   3.693        -24.737
   3.696        -24.738
   3.698        -24.739
   3.700        -24.740
   3.702        -24.741
   3.704        -24.742
   3.706        -24.743
   3.709        -24.744
   3.711        -24.745
   3.713        -24.746
   3.715        -24.746
   3.717        -24.748
   3.719        -24.749
   3.722        -24.750
   3.724        -24.751
   3.726        -24.752
   3.728        -24.754
   3.730        -24.755
   3.733        -24.756
   3.735        -24.757
   3.737        -24.759
   3.739        -24.760
   3.741        -24.762
   3.743        -24.763
   3.746        -24.765
   3.748        -24.766
   3.750        -24.768
   3.752        -24.769
   3.754        -24.770
   3.756        -24.772
   3.759        -24.773
   3.761        -24.775
   3.763        -24.776
   3.765        -24.778
   3.767        -24.780
   3.769        -24.781
   3.772        -24.783
   3.774        -24.784
   3.776        -24.786
   3.778        -24.788
   3.780        -24.789
   3.782        -24.791
   3.785        -24.793
   3.787        -24.795
   3.789        -24.796
   3.791        -24.798
   3.793        -24.800
   3.795        -24.802
   3.798        -24.803
   3.800        -24.805
   3.802        -24.807
   3.804        -24.809
   3.806        -24.811
   3.809        -24.813
   3.811        -24.815
   3.813        -24.816
   3.815        -24.818
   3.817        -24.820
   3.819        -24.822
   3.822        -24.824
   3.824        -24.826
   3.826        -24.828
   3.828        -24.830
   3.830        -24.831
   3.832        -24.833
   3.835        -24.835
   3.837        -24.837
   3.839        -24.839
   3.841        -24.840
   3.843        -24.841
   3.845        -24.843
   3.848        -24.844
   3.850        -24.845
   3.852        -24.846
   3.854        -24.848
   3.856        -24.849
   3.858        -24.850
   3.861        -24.851
   3.863        -24.852
   3.865        -24.853
   3.867        -24.854
   3.869        -24.854
   3.871        -24.855
   3.874        -24.856
   3.876        -24.856
   3.878        -24.857
   3.880        -24.858
   3.882        -24.859
   3.885        -24.859
   3.887        -24.860
   3.889        -24.861
   3.891        -24.862
   3.899        -24.864
   3.912        -24.869
   3.925        -24.873
   3.938        -24.877
   3.951        -24.881
   3.964        -24.885
   3.977        -24.889
   3.990        -24.893
   4.003        -24.897
   4.016        -24.901
   4.029        -24.905
   4.042        -24.909
   4.055        -24.913
   4.068        -24.916
   4.081        -24.920
   4.094        -24.924
   4.107        -24.927
   4.120        -24.931
   4.133        -24.934
   4.146        -24.937
   4.159        -24.940
   4.172        -24.943
   4.185        -24.947
   4.198        -24.950
   4.211        -24.953
   4.224        -24.957
   4.237        -24.961
   4.250        -24.965
   4.263        -24.970
   4.276        -24.975
   4.289        -24.981
   4.302        -24.987
   4.315        -24.994
   4.328        -25.001
   4.341        -25.009
   4.354        -25.017
   4.367        -25.026
   4.380        -25.035
   4.393        -25.044
   4.406        -25.054
   4.420        -25.065
   4.432        -25.076
   4.445        -25.087
   4.459        -25.098
   4.471        -25.110
   4.484        -25.122
   4.498        -25.134
   4.510        -25.146
   4.524        -25.159
   4.537        -25.172
   4.550        -25.185
   4.563        -25.199
   4.576        -25.212
   4.589        -25.226
   4.602        -25.240
   4.615        -25.254
   4.628        -25.268
   4.641        -25.283
   4.654        -25.297
   4.667        -25.312
   4.680        -25.327
   4.693        -25.342
   4.706        -25.357
   4.719        -25.373
   4.732        -25.388
   4.745        -25.404
   4.758        -25.420
   4.771        -25.435
   4.784        -25.451
   4.797        -25.468
   4.810        -25.484
   4.823        -25.500
   4.836        -25.517
   4.849        -25.534
   4.862        -25.551
   4.875        -25.568
   4.888        -25.585
   4.901        -25.603
   4.914        -25.620
   4.927        -25.638
   4.940        -25.656
   4.953        -25.674
   4.966        -25.692
   4.979        -25.710
   4.992        -25.729
   5.005        -25.747
   5.018        -25.766
   5.031        -25.784
   5.044        -25.803
   5.057        -25.823
   5.070        -25.842
   5.083        -25.862
   5.096        -25.881
   5.109        -25.901
   5.123        -25.921
   5.136        -25.940
   5.149        -25.960
   5.162        -25.980
   5.175        -26.000
   5.188        -26.021
   5.201        -26.041
   5.214        -26.061
   5.227        -26.081
   5.240        -26.101
   5.253        -26.121
   5.266        -26.142
   5.279        -26.162
   5.292        -26.182
   5.305        -26.203
   5.318        -26.223
   5.331        -26.244
   5.344        -26.265
   5.357        -26.286
   5.370        -26.307
   5.383        -26.328
   5.396        -26.349
   5.409        -26.371
   5.422        -26.393
   5.435        -26.415
   5.448        -26.437
   5.461        -26.460
   5.474        -26.482
   5.487        -26.505
   5.500        -26.529
   5.513        -26.552
   5.526        -26.576
   5.539        -26.600
   5.552        -26.624
   5.565        -26.649
   5.578        -26.674
   5.591        -26.700
   5.604        -26.726
   5.617        -26.752
   5.630        -26.778
   5.643        -26.805
   5.656        -26.832
   5.669        -26.860
   5.682        -26.888
   5.695        -26.917
   5.708        -26.945
   5.721        -26.975
   5.734        -27.005
   5.748        -27.036
   5.761        -27.067
   5.774        -27.098
   5.787        -27.131
   5.800        -27.163
   5.813        -27.196
   5.826        -27.231
   5.839        -27.265
   5.852        -27.300
   5.865        -27.336
   5.878        -27.373
   5.891        -27.410
   5.904        -27.448
   5.917        -27.487
   5.930        -27.527
   5.943        -27.568
   5.956        -27.609
   5.969        -27.650
   5.982        -27.693
   5.995        -27.738
   6.008        -27.783
   6.021        -27.829
   6.034        -27.875
   6.047        -27.923
   6.060        -27.972
   6.073        -28.023
   6.086        -28.073
   6.099        -28.126
   6.112        -28.180
   6.125        -28.234
   6.138        -28.290
   6.151        -28.347
   6.164        -28.406
   6.177        -28.467
   6.190        -28.528
   6.203        -28.591
   6.216        -28.655
   6.229        -28.721
   6.242        -28.789
   6.255        -28.859
   6.268        -28.930
   6.281        -29.003
   6.294        -29.077
   6.307        -29.153
   6.320        -29.230
   6.334        -29.311
   6.346        -29.394
   6.359        -29.478
   6.372        -29.564
   6.386        -29.653
   6.399        -29.744
   6.411        -29.837
   6.425        -29.933
   6.438        -30.031
   6.451        -30.132
   6.464        -30.234
   6.477        -30.338
   6.490        -30.446
   6.503        -30.559
   6.516        -30.673
   6.529        -30.789
   6.542        -30.910
   6.555        -31.034
   6.568        -31.161
   6.581        -31.290
   6.594        -31.424
   6.607        -31.564
   6.620        -31.705
   6.633        -31.847
   6.646        -31.993
   6.659        -32.145
   6.672        -32.303
   6.685        -32.462
   6.698        -32.626
   6.711        -32.796
   6.724        -32.972
   6.737        -33.150
   6.750        -33.329
   6.763        -33.522
   6.776        -33.724
   6.789        -33.925
   6.802        -34.129
   6.815        -34.338
   6.828        -34.577
   6.841        -34.836
   6.854        -35.135
   6.867        -35.763
   6.880        -36.815
   6.893        -40.536
