# log Energy    log Jnu
# (eV)          (ergs/s/cm2/Hz/Sr)
  -6.864        -20.472
  -6.820        -20.385
  -6.777        -20.298
  -6.734        -20.211
  -6.690        -20.124
  -6.647        -20.038
  -6.603        -19.951
  -6.560        -19.864
  -6.516        -19.777
  -6.473        -19.690
  -6.430        -19.603
  -6.386        -19.516
  -6.343        -19.430
  -6.299        -19.343
  -6.256        -19.256
  -6.212        -19.169
  -6.169        -19.082
  -6.126        -18.995
  -6.082        -18.909
  -6.039        -18.822
  -5.995        -18.735
  -5.952        -18.648
  -5.908        -18.561
  -5.865        -18.475
  -5.822        -18.388
  -5.778        -18.301
  -5.735        -18.214
  -5.691        -18.127
  -5.648        -18.040
  -5.605        -17.954
  -5.561        -17.867
  -5.518        -17.780
  -5.474        -17.693
  -5.431        -17.607
  -5.387        -17.520
  -5.344        -17.433
  -5.300        -17.346
  -5.257        -17.260
  -5.214        -17.173
  -5.170        -17.086
  -5.127        -17.000
  -5.083        -16.913
  -5.040        -16.826
  -4.996        -16.740
  -4.953        -16.653
  -4.910        -16.567
  -4.866        -16.480
  -4.823        -16.394
  -4.779        -16.308
  -4.736        -16.221
  -4.692        -16.135
  -4.649        -16.049
  -4.606        -15.963
  -4.562        -15.877
  -4.519        -15.791
  -4.475        -15.705
  -4.432        -15.619
  -4.388        -15.533
  -4.345        -15.448
  -4.302        -15.362
  -4.258        -15.277
  -4.215        -15.192
  -4.171        -15.107
  -4.128        -15.023
  -4.084        -14.938
  -4.041        -14.854
  -3.998        -14.770
  -3.954        -14.686
  -3.911        -14.603
  -3.867        -14.520
  -3.824        -14.438
  -3.781        -14.356
  -3.737        -14.275
  -3.693        -14.194
  -3.650        -14.114
  -3.607        -14.035
  -3.584        -13.998
  -3.582        -13.988
  -3.580        -13.986
  -3.577        -13.983
  -3.575        -13.979
  -3.573        -13.975
  -3.571        -13.971
  -3.569        -13.967
  -3.567        -13.964
  -3.564        -13.960
  -3.562        -13.956
  -3.560        -13.952
  -3.558        -13.948
  -3.556        -13.944
  -3.554        -13.940
  -3.551        -13.936
  -3.549        -13.932
  -3.547        -13.928
  -3.545        -13.925
  -3.543        -13.921
  -3.540        -13.917
  -3.538        -13.913
  -3.536        -13.909
  -3.534        -13.905
  -3.532        -13.901
  -3.530        -13.898
  -3.528        -13.894
  -3.525        -13.890
  -3.523        -13.886
  -3.521        -13.882
  -3.519        -13.878
  -3.517        -13.874
  -3.514        -13.871
  -3.512        -13.867
  -3.510        -13.863
  -3.508        -13.859
  -3.506        -13.855
  -3.504        -13.851
  -3.502        -13.847
  -3.499        -13.844
  -3.497        -13.840
  -3.495        -13.836
  -3.493        -13.832
  -3.491        -13.828
  -3.488        -13.825
  -3.486        -13.821
  -3.484        -13.817
  -3.482        -13.813
  -3.480        -13.809
  -3.477        -13.806
  -3.475        -13.802
  -3.473        -13.798
  -3.471        -13.794
  -3.469        -13.790
  -3.467        -13.786
  -3.464        -13.783
  -3.462        -13.779
  -3.460        -13.775
  -3.458        -13.771
  -3.456        -13.768
  -3.454        -13.764
  -3.451        -13.760
  -3.449        -13.756
  -3.447        -13.753
  -3.445        -13.749
  -3.443        -13.745
  -3.441        -13.741
  -3.438        -13.738
  -3.436        -13.734
  -3.434        -13.730
  -3.432        -13.726
  -3.430        -13.723
  -3.428        -13.719
  -3.425        -13.715
  -3.423        -13.712
  -3.421        -13.708
  -3.419        -13.704
  -3.417        -13.700
  -3.415        -13.697
  -3.412        -13.693
  -3.410        -13.689
  -3.408        -13.685
  -3.406        -13.682
  -3.404        -13.678
  -3.402        -13.674
  -3.399        -13.671
  -3.397        -13.667
  -3.395        -13.663
  -3.393        -13.660
  -3.391        -13.656
  -3.389        -13.652
  -3.386        -13.649
  -3.384        -13.645
  -3.382        -13.641
  -3.380        -13.638
  -3.378        -13.634
  -3.376        -13.630
  -3.373        -13.627
  -3.371        -13.623
  -3.369        -13.620
  -3.367        -13.616
  -3.365        -13.612
  -3.362        -13.609
  -3.360        -13.605
  -3.358        -13.601
  -3.356        -13.598
  -3.354        -13.594
  -3.352        -13.591
  -3.349        -13.587
  -3.347        -13.583
  -3.345        -13.580
  -3.343        -13.576
  -3.341        -13.573
  -3.339        -13.569
  -3.336        -13.565
  -3.334        -13.562
  -3.332        -13.558
  -3.330        -13.555
  -3.328        -13.551
  -3.326        -13.548
  -3.323        -13.544
  -3.321        -13.541
  -3.319        -13.537
  -3.317        -13.533
  -3.315        -13.530
  -3.313        -13.526
  -3.310        -13.523
  -3.308        -13.519
  -3.306        -13.516
  -3.304        -13.512
  -3.302        -13.509
  -3.300        -13.505
  -3.297        -13.502
  -3.295        -13.498
  -3.293        -13.495
  -3.291        -13.491
  -3.289        -13.488
  -3.287        -13.485
  -3.284        -13.481
  -3.282        -13.478
  -3.280        -13.474
  -3.278        -13.471
  -3.276        -13.467
  -3.273        -13.464
  -3.271        -13.460
  -3.269        -13.457
  -3.267        -13.453
  -3.265        -13.450
  -3.263        -13.447
  -3.260        -13.443
  -3.258        -13.440
  -3.256        -13.436
  -3.254        -13.433
  -3.252        -13.430
  -3.250        -13.426
  -3.247        -13.423
  -3.245        -13.419
  -3.243        -13.416
  -3.241        -13.413
  -3.239        -13.409
  -3.237        -13.406
  -3.234        -13.403
  -3.232        -13.399
  -3.230        -13.396
  -3.228        -13.393
  -3.226        -13.389
  -3.224        -13.386
  -3.221        -13.383
  -3.219        -13.379
  -3.217        -13.376
  -3.215        -13.373
  -3.213        -13.370
  -3.211        -13.366
  -3.208        -13.363
  -3.206        -13.360
  -3.204        -13.357
  -3.202        -13.353
  -3.200        -13.350
  -3.197        -13.347
  -3.195        -13.343
  -3.193        -13.340
  -3.191        -13.337
  -3.189        -13.334
  -3.187        -13.331
  -3.184        -13.327
  -3.182        -13.324
  -3.180        -13.321
  -3.178        -13.318
  -3.176        -13.315
  -3.174        -13.311
  -3.171        -13.308
  -3.169        -13.305
  -3.167        -13.302
  -3.165        -13.299
  -3.163        -13.296
  -3.161        -13.293
  -3.158        -13.289
  -3.156        -13.286
  -3.154        -13.283
  -3.152        -13.280
  -3.150        -13.277
  -3.148        -13.274
  -3.145        -13.271
  -3.143        -13.268
  -3.141        -13.265
  -3.139        -13.262
  -3.137        -13.259
  -3.135        -13.255
  -3.132        -13.252
  -3.130        -13.249
  -3.128        -13.246
  -3.126        -13.243
  -3.124        -13.240
  -3.122        -13.237
  -3.119        -13.234
  -3.117        -13.231
  -3.115        -13.228
  -3.113        -13.225
  -3.111        -13.222
  -3.108        -13.219
  -3.106        -13.216
  -3.104        -13.214
  -3.102        -13.211
  -3.100        -13.208
  -3.098        -13.205
  -3.095        -13.202
  -3.093        -13.199
  -3.091        -13.196
  -3.089        -13.193
  -3.087        -13.190
  -3.085        -13.187
  -3.082        -13.185
  -3.080        -13.182
  -3.078        -13.179
  -3.076        -13.176
  -3.074        -13.173
  -3.072        -13.170
  -3.069        -13.167
  -3.067        -13.165
  -3.065        -13.162
  -3.063        -13.159
  -3.061        -13.156
  -3.059        -13.154
  -3.056        -13.151
  -3.054        -13.148
  -3.052        -13.145
  -3.050        -13.143
  -3.048        -13.140
  -3.046        -13.137
  -3.043        -13.135
  -3.041        -13.132
  -3.039        -13.129
  -3.037        -13.127
  -3.035        -13.124
  -3.032        -13.121
  -3.030        -13.119
  -3.028        -13.116
  -3.026        -13.113
  -3.024        -13.111
  -3.022        -13.108
  -3.019        -13.105
  -3.017        -13.103
  -3.015        -13.100
  -3.013        -13.098
  -3.011        -13.095
  -3.009        -13.093
  -3.006        -13.090
  -3.004        -13.088
  -3.002        -13.085
  -3.000        -13.083
  -2.998        -13.080
  -2.996        -13.078
  -2.993        -13.075
  -2.991        -13.073
  -2.989        -13.070
  -2.987        -13.068
  -2.985        -13.065
  -2.983        -13.063
  -2.980        -13.061
  -2.978        -13.058
  -2.976        -13.056
  -2.974        -13.054
  -2.972        -13.051
  -2.970        -13.049
  -2.967        -13.047
  -2.965        -13.044
  -2.963        -13.042
  -2.961        -13.040
  -2.959        -13.037
  -2.956        -13.035
  -2.954        -13.033
  -2.952        -13.031
  -2.950        -13.028
  -2.948        -13.026
  -2.946        -13.024
  -2.944        -13.022
  -2.941        -13.020
  -2.939        -13.017
  -2.937        -13.015
  -2.935        -13.013
  -2.933        -13.011
  -2.930        -13.009
  -2.928        -13.007
  -2.926        -13.005
  -2.924        -13.003
  -2.922        -13.001
  -2.920        -12.999
  -2.917        -12.997
  -2.915        -12.995
  -2.913        -12.993
  -2.911        -12.991
  -2.909        -12.989
  -2.907        -12.987
  -2.904        -12.985
  -2.902        -12.983
  -2.900        -12.981
  -2.898        -12.979
  -2.896        -12.977
  -2.894        -12.975
  -2.891        -12.973
  -2.889        -12.971
  -2.887        -12.970
  -2.885        -12.968
  -2.883        -12.966
  -2.880        -12.964
  -2.878        -12.963
  -2.876        -12.961
  -2.874        -12.959
  -2.872        -12.957
  -2.870        -12.955
  -2.867        -12.954
  -2.865        -12.952
  -2.863        -12.951
  -2.861        -12.949
  -2.859        -12.947
  -2.857        -12.946
  -2.855        -12.944
  -2.852        -12.943
  -2.850        -12.941
  -2.848        -12.940
  -2.846        -12.938
  -2.843        -12.937
  -2.842        -12.935
  -2.839        -12.934
  -2.837        -12.932
  -2.835        -12.931
  -2.833        -12.929
  -2.831        -12.928
  -2.828        -12.926
  -2.826        -12.925
  -2.824        -12.923
  -2.822        -12.922
  -2.820        -12.921
  -2.817        -12.920
  -2.815        -12.919
  -2.813        -12.917
  -2.811        -12.916
  -2.809        -12.915
  -2.807        -12.913
  -2.805        -12.912
  -2.802        -12.911
  -2.800        -12.910
  -2.798        -12.909
  -2.796        -12.908
  -2.794        -12.907
  -2.792        -12.906
  -2.789        -12.905
  -2.787        -12.904
  -2.785        -12.903
  -2.783        -12.902
  -2.781        -12.901
  -2.779        -12.900
  -2.776        -12.899
  -2.774        -12.898
  -2.772        -12.897
  -2.770        -12.896
  -2.767        -12.896
  -2.765        -12.895
  -2.763        -12.894
  -2.761        -12.893
  -2.759        -12.892
  -2.757        -12.892
  -2.754        -12.891
  -2.753        -12.890
  -2.750        -12.889
  -2.748        -12.889
  -2.746        -12.888
  -2.744        -12.888
  -2.741        -12.887
  -2.739        -12.887
  -2.737        -12.886
  -2.735        -12.886
  -2.733        -12.885
  -2.731        -12.885
  -2.729        -12.884
  -2.726        -12.884
  -2.724        -12.884
  -2.722        -12.883
  -2.720        -12.883
  -2.718        -12.883
  -2.716        -12.882
  -2.713        -12.882
  -2.711        -12.882
  -2.709        -12.881
  -2.707        -12.881
  -2.705        -12.881
  -2.703        -12.881
  -2.700        -12.881
  -2.698        -12.881
  -2.696        -12.881
  -2.694        -12.881
  -2.692        -12.881
  -2.689        -12.881
  -2.687        -12.881
  -2.685        -12.881
  -2.683        -12.881
  -2.681        -12.881
  -2.679        -12.881
  -2.677        -12.882
  -2.674        -12.882
  -2.672        -12.882
  -2.670        -12.882
  -2.668        -12.883
  -2.666        -12.883
  -2.663        -12.884
  -2.661        -12.884
  -2.659        -12.884
  -2.657        -12.885
  -2.655        -12.885
  -2.653        -12.886
  -2.650        -12.886
  -2.648        -12.887
  -2.646        -12.888
  -2.644        -12.888
  -2.642        -12.889
  -2.640        -12.889
  -2.637        -12.890
  -2.635        -12.891
  -2.633        -12.892
  -2.631        -12.893
  -2.629        -12.894
  -2.626        -12.894
  -2.624        -12.895
  -2.622        -12.896
  -2.620        -12.897
  -2.618        -12.898
  -2.616        -12.899
  -2.614        -12.900
  -2.611        -12.902
  -2.609        -12.903
  -2.607        -12.904
  -2.605        -12.905
  -2.603        -12.906
  -2.600        -12.908
  -2.598        -12.909
  -2.596        -12.910
  -2.594        -12.912
  -2.592        -12.913
  -2.590        -12.915
  -2.587        -12.916
  -2.585        -12.918
  -2.583        -12.919
  -2.581        -12.921
  -2.579        -12.923
  -2.577        -12.924
  -2.574        -12.926
  -2.572        -12.928
  -2.570        -12.930
  -2.568        -12.931
  -2.566        -12.933
  -2.564        -12.935
  -2.561        -12.937
  -2.559        -12.939
  -2.557        -12.941
  -2.555        -12.943
  -2.553        -12.945
  -2.551        -12.947
  -2.548        -12.950
  -2.546        -12.952
  -2.544        -12.954
  -2.542        -12.957
  -2.540        -12.959
  -2.538        -12.961
  -2.535        -12.964
  -2.533        -12.966
  -2.531        -12.969
  -2.529        -12.971
  -2.527        -12.974
  -2.525        -12.976
  -2.522        -12.979
  -2.520        -12.982
  -2.518        -12.985
  -2.516        -12.988
  -2.514        -12.990
  -2.511        -12.993
  -2.509        -12.996
  -2.507        -12.999
  -2.505        -13.002
  -2.503        -13.005
  -2.501        -13.008
  -2.498        -13.012
  -2.496        -13.015
  -2.494        -13.018
  -2.492        -13.021
  -2.490        -13.025
  -2.488        -13.028
  -2.485        -13.032
  -2.483        -13.035
  -2.481        -13.039
  -2.479        -13.042
  -2.477        -13.046
  -2.475        -13.050
  -2.472        -13.053
  -2.470        -13.057
  -2.468        -13.061
  -2.466        -13.065
  -2.464        -13.069
  -2.462        -13.073
  -2.459        -13.077
  -2.457        -13.081
  -2.455        -13.085
  -2.453        -13.089
  -2.451        -13.094
  -2.448        -13.098
  -2.446        -13.102
  -2.444        -13.107
  -2.442        -13.111
  -2.440        -13.116
  -2.438        -13.120
  -2.435        -13.125
  -2.433        -13.130
  -2.431        -13.134
  -2.429        -13.139
  -2.427        -13.144
  -2.425        -13.149
  -2.422        -13.154
  -2.420        -13.159
  -2.418        -13.164
  -2.416        -13.169
  -2.414        -13.174
  -2.412        -13.179
  -2.409        -13.185
  -2.407        -13.190
  -2.405        -13.195
  -2.403        -13.201
  -2.401        -13.206
  -2.398        -13.212
  -2.396        -13.218
  -2.394        -13.223
  -2.392        -13.229
  -2.390        -13.235
  -2.388        -13.241
  -2.386        -13.247
  -2.383        -13.253
  -2.381        -13.259
  -2.379        -13.265
  -2.377        -13.271
  -2.375        -13.277
  -2.372        -13.284
  -2.370        -13.290
  -2.368        -13.297
  -2.366        -13.303
  -2.364        -13.310
  -2.362        -13.316
  -2.359        -13.323
  -2.357        -13.330
  -2.355        -13.337
  -2.353        -13.343
  -2.351        -13.350
  -2.349        -13.357
  -2.346        -13.365
  -2.344        -13.372
  -2.342        -13.379
  -2.340        -13.386
  -2.338        -13.394
  -2.336        -13.401
  -2.333        -13.409
  -2.331        -13.416
  -2.329        -13.424
  -2.327        -13.432
  -2.325        -13.439
  -2.323        -13.447
  -2.320        -13.455
  -2.318        -13.463
  -2.316        -13.471
  -2.314        -13.479
  -2.312        -13.487
  -2.309        -13.496
  -2.307        -13.504
  -2.305        -13.513
  -2.303        -13.521
  -2.301        -13.530
  -2.299        -13.538
  -2.297        -13.547
  -2.294        -13.556
  -2.292        -13.565
  -2.290        -13.574
  -2.288        -13.583
  -2.286        -13.592
  -2.283        -13.601
  -2.281        -13.610
  -2.279        -13.620
  -2.277        -13.629
  -2.275        -13.639
  -2.273        -13.648
  -2.270        -13.658
  -2.268        -13.668
  -2.266        -13.678
  -2.264        -13.687
  -2.262        -13.698
  -2.260        -13.708
  -2.257        -13.718
  -2.255        -13.728
  -2.253        -13.738
  -2.251        -13.749
  -2.249        -13.759
  -2.247        -13.770
  -2.244        -13.781
  -2.242        -13.791
  -2.240        -13.802
  -2.238        -13.813
  -2.236        -13.824
  -2.234        -13.835
  -2.231        -13.846
  -2.229        -13.858
  -2.227        -13.869
  -2.225        -13.881
  -2.223        -13.892
  -2.220        -13.904
  -2.218        -13.915
  -2.216        -13.927
  -2.214        -13.939
  -2.212        -13.951
  -2.210        -13.963
  -2.207        -13.976
  -2.205        -13.988
  -2.203        -14.000
  -2.201        -14.013
  -2.199        -14.025
  -2.197        -14.038
  -2.194        -14.051
  -2.192        -14.063
  -2.190        -14.077
  -2.188        -14.090
  -2.186        -14.103
  -2.184        -14.116
  -2.181        -14.129
  -2.179        -14.143
  -2.177        -14.156
  -2.175        -14.170
  -2.173        -14.184
  -2.171        -14.197
  -2.168        -14.212
  -2.166        -14.225
  -2.164        -14.240
  -2.162        -14.254
  -2.160        -14.268
  -2.158        -14.283
  -2.155        -14.298
  -2.153        -14.312
  -2.151        -14.327
  -2.149        -14.342
  -2.147        -14.357
  -2.145        -14.372
  -2.142        -14.387
  -2.140        -14.402
  -2.138        -14.418
  -2.136        -14.433
  -2.134        -14.449
  -2.131        -14.465
  -2.129        -14.481
  -2.127        -14.497
  -2.125        -14.513
  -2.123        -14.529
  -2.121        -14.545
  -2.118        -14.562
  -2.116        -14.578
  -2.114        -14.595
  -2.112        -14.612
  -2.110        -14.629
  -2.108        -14.646
  -2.105        -14.663
  -2.103        -14.680
  -2.101        -14.698
  -2.099        -14.715
  -2.097        -14.733
  -2.095        -14.751
  -2.092        -14.768
  -2.090        -14.786
  -2.088        -14.805
  -2.086        -14.823
  -2.084        -14.841
  -2.082        -14.860
  -2.079        -14.878
  -2.077        -14.897
  -2.075        -14.916
  -2.073        -14.935
  -2.071        -14.954
  -2.069        -14.973
  -2.066        -14.993
  -2.064        -15.012
  -2.062        -15.032
  -2.060        -15.051
  -2.058        -15.071
  -2.056        -15.091
  -2.053        -15.111
  -2.051        -15.132
  -2.049        -15.152
  -2.047        -15.173
  -2.045        -15.194
  -2.043        -15.214
  -2.040        -15.235
  -2.038        -15.256
  -2.036        -15.278
  -2.034        -15.299
  -2.032        -15.320
  -2.029        -15.342
  -2.027        -15.364
  -2.025        -15.386
  -2.023        -15.408
  -2.021        -15.430
  -2.019        -15.453
  -2.016        -15.475
  -2.014        -15.498
  -2.012        -15.521
  -2.010        -15.544
  -2.008        -15.567
  -2.006        -15.590
  -2.003        -15.613
  -2.001        -15.637
  -1.999        -15.660
  -1.997        -15.684
  -1.995        -15.708
  -1.993        -15.732
  -1.990        -15.757
  -1.988        -15.781
  -1.986        -15.806
  -1.984        -15.830
  -1.982        -15.855
  -1.980        -15.881
  -1.977        -15.906
  -1.975        -15.931
  -1.973        -15.957
  -1.971        -15.982
  -1.969        -16.008
  -1.967        -16.034
  -1.964        -16.060
  -1.962        -16.087
  -1.960        -16.113
  -1.958        -16.140
  -1.956        -16.167
  -1.953        -16.194
  -1.951        -16.221
  -1.949        -16.248
  -1.947        -16.275
  -1.945        -16.303
  -1.943        -16.331
  -1.940        -16.359
  -1.938        -16.387
  -1.936        -16.415
  -1.934        -16.444
  -1.932        -16.472
  -1.930        -16.501
  -1.927        -16.530
  -1.925        -16.559
  -1.923        -16.588
  -1.921        -16.618
  -1.919        -16.647
  -1.917        -16.677
  -1.914        -16.707
  -1.912        -16.737
  -1.910        -16.767
  -1.908        -16.798
  -1.906        -16.828
  -1.904        -16.859
  -1.901        -16.890
  -1.899        -16.921
  -1.897        -16.952
  -1.895        -16.983
  -1.893        -17.015
  -1.891        -17.047
  -1.888        -17.078
  -1.886        -17.110
  -1.884        -17.142
  -1.882        -17.175
  -1.880        -17.207
  -1.877        -17.239
  -1.875        -17.271
  -1.873        -17.304
  -1.871        -17.337
  -1.869        -17.370
  -1.867        -17.403
  -1.864        -17.436
  -1.862        -17.468
  -1.860        -17.502
  -1.858        -17.535
  -1.856        -17.568
  -1.853        -17.601
  -1.851        -17.634
  -1.849        -17.667
  -1.847        -17.700
  -1.845        -17.733
  -1.843        -17.766
  -1.841        -17.799
  -1.838        -17.831
  -1.836        -17.864
  -1.834        -17.896
  -1.832        -17.928
  -1.830        -17.960
  -1.828        -17.992
  -1.825        -18.023
  -1.823        -18.054
  -1.821        -18.084
  -1.819        -18.114
  -1.817        -18.144
  -1.815        -18.173
  -1.812        -18.202
  -1.810        -18.230
  -1.808        -18.257
  -1.806        -18.284
  -1.804        -18.310
  -1.801        -18.335
  -1.799        -18.360
  -1.797        -18.384
  -1.795        -18.407
  -1.793        -18.429
  -1.791        -18.450
  -1.788        -18.470
  -1.786        -18.490
  -1.784        -18.509
  -1.782        -18.526
  -1.780        -18.543
  -1.777        -18.559
  -1.775        -18.574
  -1.773        -18.588
  -1.771        -18.601
  -1.769        -18.614
  -1.767        -18.626
  -1.764        -18.637
  -1.763        -18.647
  -1.760        -18.656
  -1.758        -18.665
  -1.756        -18.674
  -1.754        -18.681
  -1.752        -18.689
  -1.749        -18.695
  -1.747        -18.701
  -1.745        -18.707
  -1.743        -18.713
  -1.741        -18.717
  -1.739        -18.722
  -1.736        -18.726
  -1.734        -18.730
  -1.732        -18.733
  -1.730        -18.737
  -1.728        -18.740
  -1.726        -18.742
  -1.723        -18.745
  -1.721        -18.747
  -1.719        -18.750
  -1.717        -18.752
  -1.715        -18.754
  -1.713        -18.756
  -1.710        -18.758
  -1.708        -18.759
  -1.706        -18.761
  -1.704        -18.763
  -1.702        -18.764
  -1.699        -18.765
  -1.697        -18.767
  -1.695        -18.768
  -1.693        -18.769
  -1.691        -18.771
  -1.689        -18.772
  -1.686        -18.773
  -1.684        -18.774
  -1.682        -18.775
  -1.680        -18.776
  -1.678        -18.777
  -1.675        -18.778
  -1.673        -18.779
  -1.671        -18.780
  -1.669        -18.781
  -1.667        -18.782
  -1.665        -18.783
  -1.663        -18.784
  -1.660        -18.785
  -1.658        -18.786
  -1.656        -18.786
  -1.654        -18.787
  -1.652        -18.788
  -1.650        -18.789
  -1.647        -18.790
  -1.645        -18.791
  -1.643        -18.792
  -1.641        -18.793
  -1.639        -18.794
  -1.637        -18.795
  -1.634        -18.795
  -1.632        -18.796
  -1.630        -18.797
  -1.628        -18.798
  -1.626        -18.798
  -1.623        -18.800
  -1.621        -18.800
  -1.619        -18.801
  -1.617        -18.802
  -1.615        -18.803
  -1.613        -18.804
  -1.611        -18.805
  -1.608        -18.806
  -1.606        -18.806
  -1.604        -18.807
  -1.602        -18.808
  -1.600        -18.809
  -1.597        -18.810
  -1.595        -18.810
  -1.593        -18.811
  -1.591        -18.812
  -1.589        -18.813
  -1.587        -18.814
  -1.584        -18.815
  -1.582        -18.816
  -1.580        -18.817
  -1.578        -18.817
  -1.576        -18.818
  -1.573        -18.819
  -1.571        -18.820
  -1.569        -18.821
  -1.567        -18.822
  -1.565        -18.823
  -1.563        -18.824
  -1.561        -18.824
  -1.558        -18.825
  -1.556        -18.826
  -1.554        -18.827
  -1.552        -18.828
  -1.550        -18.829
  -1.547        -18.829
  -1.545        -18.830
  -1.543        -18.831
  -1.541        -18.832
  -1.539        -18.833
  -1.537        -18.833
  -1.534        -18.834
  -1.532        -18.835
  -1.530        -18.836
  -1.528        -18.837
  -1.526        -18.838
  -1.524        -18.839
  -1.522        -18.839
  -1.519        -18.840
  -1.517        -18.841
  -1.515        -18.842
  -1.513        -18.842
  -1.511        -18.843
  -1.508        -18.844
  -1.506        -18.845
  -1.504        -18.846
  -1.502        -18.847
  -1.500        -18.848
  -1.498        -18.849
  -1.495        -18.849
  -1.493        -18.850
  -1.491        -18.851
  -1.489        -18.852
  -1.487        -18.853
  -1.484        -18.854
  -1.482        -18.854
  -1.480        -18.855
  -1.478        -18.856
  -1.476        -18.857
  -1.474        -18.858
  -1.472        -18.858
  -1.469        -18.859
  -1.467        -18.860
  -1.465        -18.861
  -1.463        -18.862
  -1.461        -18.863
  -1.458        -18.863
  -1.456        -18.864
  -1.454        -18.865
  -1.452        -18.866
  -1.450        -18.867
  -1.448        -18.868
  -1.445        -18.868
  -1.443        -18.869
  -1.441        -18.870
  -1.439        -18.871
  -1.437        -18.872
  -1.435        -18.873
  -1.432        -18.874
  -1.430        -18.874
  -1.428        -18.875
  -1.426        -18.876
  -1.424        -18.877
  -1.422        -18.878
  -1.419        -18.879
  -1.417        -18.879
  -1.415        -18.880
  -1.413        -18.881
  -1.411        -18.882
  -1.409        -18.883
  -1.406        -18.883
  -1.404        -18.884
  -1.402        -18.885
  -1.400        -18.886
  -1.398        -18.887
  -1.396        -18.888
  -1.393        -18.889
  -1.391        -18.889
  -1.389        -18.890
  -1.387        -18.891
  -1.385        -18.892
  -1.383        -18.893
  -1.380        -18.894
  -1.378        -18.894
  -1.376        -18.895
  -1.374        -18.896
  -1.372        -18.897
  -1.370        -18.898
  -1.367        -18.899
  -1.365        -18.899
  -1.363        -18.900
  -1.361        -18.901
  -1.359        -18.902
  -1.356        -18.903
  -1.354        -18.904
  -1.352        -18.904
  -1.350        -18.905
  -1.348        -18.906
  -1.346        -18.907
  -1.343        -18.908
  -1.341        -18.909
  -1.339        -18.910
  -1.337        -18.910
  -1.335        -18.911
  -1.333        -18.912
  -1.330        -18.913
  -1.328        -18.914
  -1.326        -18.915
  -1.324        -18.915
  -1.322        -18.916
  -1.320        -18.917
  -1.317        -18.918
  -1.315        -18.919
  -1.313        -18.920
  -1.311        -18.920
  -1.309        -18.921
  -1.307        -18.922
  -1.304        -18.923
  -1.302        -18.924
  -1.300        -18.925
  -1.298        -18.926
  -1.296        -18.926
  -1.293        -18.927
  -1.291        -18.928
  -1.289        -18.929
  -1.287        -18.930
  -1.285        -18.931
  -1.283        -18.932
  -1.280        -18.932
  -1.278        -18.933
  -1.276        -18.934
  -1.274        -18.935
  -1.272        -18.936
  -1.270        -18.937
  -1.267        -18.938
  -1.265        -18.939
  -1.263        -18.939
  -1.261        -18.940
  -1.259        -18.941
  -1.257        -18.942
  -1.254        -18.943
  -1.252        -18.944
  -1.250        -18.945
  -1.248        -18.946
  -1.246        -18.947
  -1.243        -18.948
  -1.241        -18.949
  -1.239        -18.949
  -1.237        -18.950
  -1.235        -18.951
  -1.233        -18.952
  -1.231        -18.953
  -1.228        -18.954
  -1.226        -18.955
  -1.224        -18.956
  -1.222        -18.957
  -1.220        -18.958
  -1.217        -18.959
  -1.215        -18.960
  -1.213        -18.961
  -1.211        -18.962
  -1.209        -18.963
  -1.207        -18.963
  -1.204        -18.964
  -1.202        -18.965
  -1.200        -18.966
  -1.198        -18.967
  -1.196        -18.968
  -1.194        -18.969
  -1.191        -18.970
  -1.189        -18.971
  -1.187        -18.972
  -1.185        -18.973
  -1.183        -18.974
  -1.181        -18.975
  -1.178        -18.976
  -1.176        -18.977
  -1.174        -18.978
  -1.172        -18.979
  -1.170        -18.980
  -1.168        -18.981
  -1.165        -18.982
  -1.163        -18.983
  -1.161        -18.985
  -1.159        -18.986
  -1.157        -18.987
  -1.155        -18.988
  -1.152        -18.989
  -1.150        -18.990
  -1.148        -18.991
  -1.146        -18.992
  -1.144        -18.993
  -1.142        -18.995
  -1.139        -18.996
  -1.137        -18.997
  -1.135        -18.998
  -1.133        -18.999
  -1.131        -19.000
  -1.129        -19.002
  -1.126        -19.003
  -1.124        -19.004
  -1.122        -19.005
  -1.120        -19.006
  -1.118        -19.008
  -1.115        -19.009
  -1.113        -19.010
  -1.111        -19.012
  -1.109        -19.013
  -1.107        -19.014
  -1.105        -19.016
  -1.102        -19.017
  -1.100        -19.018
  -1.098        -19.019
  -1.096        -19.021
  -1.094        -19.022
  -1.092        -19.024
  -1.089        -19.025
  -1.087        -19.027
  -1.085        -19.028
  -1.083        -19.029
  -1.081        -19.031
  -1.079        -19.032
  -1.076        -19.034
  -1.074        -19.035
  -1.072        -19.037
  -1.070        -19.038
  -1.068        -19.040
  -1.066        -19.042
  -1.063        -19.043
  -1.061        -19.045
  -1.059        -19.046
  -1.057        -19.048
  -1.055        -19.050
  -1.052        -19.051
  -1.050        -19.053
  -1.048        -19.055
  -1.046        -19.057
  -1.044        -19.058
  -1.042        -19.060
  -1.039        -19.062
  -1.037        -19.064
  -1.035        -19.066
  -1.033        -19.067
  -1.031        -19.069
  -1.029        -19.071
  -1.026        -19.073
  -1.024        -19.075
  -1.022        -19.077
  -1.020        -19.079
  -1.018        -19.081
  -1.016        -19.083
  -1.013        -19.085
  -1.011        -19.087
  -1.009        -19.090
  -1.007        -19.092
  -1.005        -19.094
  -1.003        -19.096
  -1.000        -19.098
  -0.998        -19.100
  -0.996        -19.102
  -0.994        -19.105
  -0.992        -19.107
  -0.990        -19.109
  -0.987        -19.111
  -0.985        -19.113
  -0.983        -19.115
  -0.981        -19.117
  -0.979        -19.119
  -0.977        -19.121
  -0.974        -19.124
  -0.972        -19.126
  -0.970        -19.128
  -0.968        -19.130
  -0.966        -19.132
  -0.963        -19.134
  -0.961        -19.136
  -0.959        -19.138
  -0.957        -19.140
  -0.955        -19.142
  -0.953        -19.144
  -0.950        -19.146
  -0.948        -19.148
  -0.946        -19.150
  -0.944        -19.152
  -0.942        -19.154
  -0.940        -19.156
  -0.937        -19.158
  -0.935        -19.159
  -0.933        -19.161
  -0.931        -19.163
  -0.929        -19.165
  -0.927        -19.167
  -0.924        -19.169
  -0.922        -19.171
  -0.920        -19.172
  -0.918        -19.174
  -0.916        -19.176
  -0.914        -19.178
  -0.911        -19.179
  -0.909        -19.181
  -0.907        -19.183
  -0.905        -19.185
  -0.903        -19.186
  -0.900        -19.188
  -0.898        -19.190
  -0.896        -19.191
  -0.894        -19.193
  -0.892        -19.194
  -0.890        -19.196
  -0.887        -19.198
  -0.885        -19.200
  -0.883        -19.201
  -0.881        -19.203
  -0.879        -19.204
  -0.877        -19.206
  -0.874        -19.207
  -0.872        -19.209
  -0.870        -19.210
  -0.868        -19.212
  -0.866        -19.213
  -0.864        -19.215
  -0.862        -19.216
  -0.859        -19.218
  -0.857        -19.219
  -0.855        -19.220
  -0.853        -19.222
  -0.851        -19.223
  -0.848        -19.225
  -0.846        -19.226
  -0.844        -19.227
  -0.842        -19.228
  -0.840        -19.230
  -0.838        -19.231
  -0.835        -19.232
  -0.833        -19.233
  -0.831        -19.235
  -0.829        -19.236
  -0.827        -19.237
  -0.825        -19.238
  -0.822        -19.240
  -0.820        -19.241
  -0.818        -19.242
  -0.816        -19.242
  -0.814        -19.243
  -0.812        -19.245
  -0.809        -19.246
  -0.807        -19.247
  -0.805        -19.248
  -0.803        -19.249
  -0.801        -19.250
  -0.799        -19.250
  -0.796        -19.251
  -0.794        -19.252
  -0.792        -19.253
  -0.790        -19.254
  -0.788        -19.254
  -0.785        -19.255
  -0.783        -19.256
  -0.781        -19.257
  -0.779        -19.258
  -0.777        -19.258
  -0.774        -19.259
  -0.772        -19.259
  -0.770        -19.260
  -0.768        -19.261
  -0.766        -19.261
  -0.764        -19.262
  -0.762        -19.262
  -0.759        -19.263
  -0.757        -19.263
  -0.755        -19.264
  -0.753        -19.264
  -0.751        -19.265
  -0.748        -19.265
  -0.746        -19.265
  -0.744        -19.266
  -0.742        -19.266
  -0.740        -19.266
  -0.738        -19.267
  -0.736        -19.267
  -0.733        -19.267
  -0.731        -19.268
  -0.729        -19.268
  -0.727        -19.268
  -0.725        -19.268
  -0.723        -19.268
  -0.720        -19.269
  -0.718        -19.269
  -0.716        -19.268
  -0.714        -19.269
  -0.712        -19.268
  -0.709        -19.269
  -0.707        -19.268
  -0.705        -19.269
  -0.703        -19.268
  -0.701        -19.268
  -0.699        -19.268
  -0.697        -19.268
  -0.694        -19.268
  -0.692        -19.268
  -0.690        -19.267
  -0.688        -19.267
  -0.685        -19.267
  -0.683        -19.267
  -0.681        -19.267
  -0.679        -19.266
  -0.677        -19.266
  -0.675        -19.265
  -0.673        -19.265
  -0.670        -19.264
  -0.668        -19.264
  -0.666        -19.264
  -0.664        -19.263
  -0.662        -19.263
  -0.659        -19.262
  -0.657        -19.262
  -0.655        -19.261
  -0.653        -19.260
  -0.651        -19.260
  -0.649        -19.259
  -0.647        -19.259
  -0.644        -19.258
  -0.642        -19.257
  -0.640        -19.257
  -0.638        -19.256
  -0.636        -19.255
  -0.633        -19.255
  -0.631        -19.254
  -0.629        -19.253
  -0.627        -19.252
  -0.625        -19.251
  -0.623        -19.251
  -0.621        -19.250
  -0.618        -19.249
  -0.616        -19.248
  -0.614        -19.248
  -0.612        -19.247
  -0.610        -19.246
  -0.608        -19.245
  -0.605        -19.244
  -0.603        -19.243
  -0.601        -19.242
  -0.599        -19.242
  -0.596        -19.241
  -0.594        -19.240
  -0.592        -19.239
  -0.590        -19.238
  -0.588        -19.237
  -0.586        -19.236
  -0.584        -19.235
  -0.581        -19.234
  -0.579        -19.233
  -0.577        -19.232
  -0.575        -19.231
  -0.573        -19.230
  -0.571        -19.229
  -0.568        -19.228
  -0.566        -19.227
  -0.564        -19.226
  -0.562        -19.225
  -0.560        -19.224
  -0.557        -19.223
  -0.555        -19.222
  -0.553        -19.221
  -0.551        -19.220
  -0.549        -19.219
  -0.547        -19.218
  -0.544        -19.217
  -0.542        -19.216
  -0.540        -19.215
  -0.538        -19.214
  -0.536        -19.213
  -0.534        -19.212
  -0.531        -19.211
  -0.529        -19.210
  -0.527        -19.209
  -0.525        -19.208
  -0.523        -19.207
  -0.521        -19.206
  -0.518        -19.205
  -0.516        -19.204
  -0.514        -19.203
  -0.512        -19.202
  -0.510        -19.201
  -0.507        -19.200
  -0.505        -19.199
  -0.503        -19.198
  -0.501        -19.196
  -0.499        -19.195
  -0.497        -19.194
  -0.495        -19.193
  -0.492        -19.192
  -0.490        -19.191
  -0.488        -19.190
  -0.486        -19.189
  -0.484        -19.188
  -0.482        -19.187
  -0.479        -19.185
  -0.477        -19.184
  -0.475        -19.183
  -0.473        -19.182
  -0.471        -19.181
  -0.468        -19.180
  -0.466        -19.179
  -0.464        -19.178
  -0.462        -19.177
  -0.460        -19.175
  -0.458        -19.174
  -0.455        -19.173
  -0.453        -19.172
  -0.451        -19.171
  -0.449        -19.170
  -0.447        -19.169
  -0.445        -19.168
  -0.442        -19.166
  -0.440        -19.165
  -0.438        -19.164
  -0.436        -19.163
  -0.434        -19.162
  -0.432        -19.161
  -0.429        -19.160
  -0.427        -19.159
  -0.425        -19.158
  -0.423        -19.156
  -0.421        -19.155
  -0.419        -19.154
  -0.416        -19.153
  -0.414        -19.152
  -0.412        -19.151
  -0.410        -19.150
  -0.408        -19.149
  -0.405        -19.148
  -0.403        -19.146
  -0.401        -19.145
  -0.399        -19.144
  -0.397        -19.143
  -0.395        -19.142
  -0.392        -19.141
  -0.390        -19.139
  -0.388        -19.138
  -0.386        -19.137
  -0.384        -19.136
  -0.382        -19.135
  -0.379        -19.134
  -0.377        -19.133
  -0.375        -19.132
  -0.373        -19.130
  -0.371        -19.129
  -0.369        -19.128
  -0.366        -19.127
  -0.364        -19.126
  -0.362        -19.125
  -0.360        -19.123
  -0.358        -19.122
  -0.356        -19.121
  -0.353        -19.120
  -0.351        -19.119
  -0.349        -19.117
  -0.347        -19.116
  -0.345        -19.115
  -0.343        -19.114
  -0.340        -19.113
  -0.338        -19.111
  -0.336        -19.110
  -0.334        -19.109
  -0.332        -19.108
  -0.330        -19.107
  -0.327        -19.106
  -0.325        -19.104
  -0.323        -19.103
  -0.321        -19.102
  -0.319        -19.101
  -0.316        -19.100
  -0.314        -19.099
  -0.312        -19.098
  -0.310        -19.096
  -0.308        -19.095
  -0.306        -19.094
  -0.303        -19.093
  -0.301        -19.092
  -0.299        -19.091
  -0.297        -19.090
  -0.295        -19.090
  -0.293        -19.089
  -0.290        -19.088
  -0.288        -19.087
  -0.286        -19.086
  -0.284        -19.086
  -0.282        -19.085
  -0.280        -19.084
  -0.277        -19.083
  -0.275        -19.083
  -0.273        -19.082
  -0.271        -19.082
  -0.269        -19.081
  -0.267        -19.080
  -0.264        -19.080
  -0.262        -19.079
  -0.260        -19.079
  -0.258        -19.078
  -0.256        -19.078
  -0.253        -19.077
  -0.251        -19.077
  -0.249        -19.076
  -0.247        -19.076
  -0.245        -19.075
  -0.243        -19.075
  -0.241        -19.074
  -0.238        -19.074
  -0.236        -19.073
  -0.234        -19.073
  -0.232        -19.073
  -0.230        -19.072
  -0.227        -19.072
  -0.225        -19.072
  -0.223        -19.071
  -0.221        -19.071
  -0.219        -19.070
  -0.217        -19.070
  -0.214        -19.070
  -0.212        -19.070
  -0.210        -19.070
  -0.208        -19.069
  -0.206        -19.069
  -0.204        -19.069
  -0.201        -19.069
  -0.199        -19.069
  -0.197        -19.068
  -0.195        -19.068
  -0.193        -19.068
  -0.191        -19.068
  -0.188        -19.068
  -0.186        -19.068
  -0.184        -19.068
  -0.182        -19.068
  -0.180        -19.068
  -0.178        -19.068
  -0.175        -19.068
  -0.173        -19.068
  -0.171        -19.069
  -0.169        -19.069
  -0.167        -19.069
  -0.164        -19.069
  -0.162        -19.069
  -0.160        -19.069
  -0.158        -19.070
  -0.156        -19.070
  -0.154        -19.070
  -0.151        -19.071
  -0.149        -19.071
  -0.147        -19.071
  -0.145        -19.072
  -0.143        -19.072
  -0.141        -19.072
  -0.138        -19.073
  -0.136        -19.073
  -0.134        -19.073
  -0.132        -19.074
  -0.130        -19.074
  -0.128        -19.075
  -0.125        -19.075
  -0.123        -19.075
  -0.121        -19.076
  -0.119        -19.076
  -0.117        -19.077
  -0.115        -19.077
  -0.112        -19.077
  -0.110        -19.077
  -0.108        -19.078
  -0.106        -19.078
  -0.104        -19.078
  -0.102        -19.078
  -0.099        -19.079
  -0.097        -19.079
  -0.095        -19.079
  -0.093        -19.079
  -0.091        -19.079
  -0.089        -19.079
  -0.086        -19.079
  -0.084        -19.080
  -0.082        -19.080
  -0.080        -19.080
  -0.078        -19.080
  -0.075        -19.080
  -0.073        -19.080
  -0.071        -19.080
  -0.069        -19.080
  -0.067        -19.080
  -0.065        -19.080
  -0.063        -19.080
  -0.060        -19.081
  -0.058        -19.080
  -0.056        -19.081
  -0.054        -19.081
  -0.052        -19.081
  -0.049        -19.081
  -0.047        -19.081
  -0.045        -19.081
  -0.043        -19.081
  -0.041        -19.081
  -0.039        -19.082
  -0.036        -19.082
  -0.034        -19.082
  -0.032        -19.082
  -0.030        -19.082
  -0.028        -19.082
  -0.026        -19.083
  -0.023        -19.083
  -0.021        -19.083
  -0.019        -19.083
  -0.017        -19.084
  -0.015        -19.084
  -0.013        -19.084
  -0.010        -19.084
  -0.008        -19.085
  -0.006        -19.085
  -0.004        -19.085
  -0.002        -19.086
   0.000        -19.086
   0.003        -19.086
   0.005        -19.087
   0.007        -19.087
   0.009        -19.087
   0.011        -19.088
   0.013        -19.088
   0.016        -19.089
   0.018        -19.089
   0.020        -19.090
   0.022        -19.090
   0.024        -19.090
   0.027        -19.091
   0.029        -19.091
   0.031        -19.091
   0.033        -19.092
   0.035        -19.092
   0.037        -19.093
   0.040        -19.093
   0.042        -19.094
   0.044        -19.094
   0.046        -19.095
   0.048        -19.095
   0.050        -19.095
   0.053        -19.096
   0.055        -19.096
   0.057        -19.097
   0.059        -19.097
   0.061        -19.098
   0.063        -19.098
   0.066        -19.099
   0.068        -19.099
   0.070        -19.100
   0.072        -19.100
   0.074        -19.100
   0.076        -19.101
   0.079        -19.101
   0.081        -19.101
   0.083        -19.102
   0.085        -19.102
   0.087        -19.102
   0.089        -19.103
   0.092        -19.103
   0.094        -19.103
   0.096        -19.104
   0.098        -19.104
   0.100        -19.105
   0.103        -19.105
   0.105        -19.105
   0.107        -19.106
   0.109        -19.106
   0.111        -19.107
   0.113        -19.107
   0.116        -19.108
   0.118        -19.108
   0.120        -19.109
   0.122        -19.109
   0.124        -19.110
   0.126        -19.110
   0.128        -19.110
   0.131        -19.111
   0.133        -19.112
   0.135        -19.112
   0.137        -19.112
   0.139        -19.112
   0.142        -19.113
   0.144        -19.113
   0.146        -19.114
   0.148        -19.114
   0.150        -19.114
   0.153        -19.115
   0.155        -19.115
   0.157        -19.116
   0.159        -19.116
   0.161        -19.117
   0.163        -19.117
   0.165        -19.118
   0.168        -19.118
   0.170        -19.118
   0.172        -19.119
   0.174        -19.119
   0.176        -19.119
   0.178        -19.120
   0.181        -19.120
   0.183        -19.121
   0.185        -19.121
   0.187        -19.122
   0.189        -19.122
   0.192        -19.123
   0.194        -19.123
   0.196        -19.124
   0.198        -19.124
   0.200        -19.125
   0.202        -19.125
   0.205        -19.125
   0.207        -19.126
   0.209        -19.126
   0.211        -19.127
   0.213        -19.127
   0.215        -19.128
   0.218        -19.128
   0.220        -19.129
   0.222        -19.129
   0.224        -19.130
   0.226        -19.130
   0.229        -19.131
   0.231        -19.131
   0.233        -19.132
   0.235        -19.132
   0.237        -19.132
   0.239        -19.133
   0.241        -19.133
   0.244        -19.134
   0.246        -19.135
   0.248        -19.135
   0.250        -19.136
   0.252        -19.136
   0.254        -19.137
   0.257        -19.137
   0.259        -19.138
   0.261        -19.139
   0.263        -19.139
   0.265        -19.140
   0.267        -19.140
   0.270        -19.141
   0.272        -19.142
   0.274        -19.142
   0.276        -19.143
   0.278        -19.143
   0.281        -19.144
   0.283        -19.145
   0.285        -19.145
   0.287        -19.146
   0.289        -19.147
   0.291        -19.148
   0.293        -19.148
   0.296        -19.149
   0.298        -19.149
   0.300        -19.150
   0.302        -19.151
   0.305        -19.152
   0.307        -19.152
   0.309        -19.153
   0.311        -19.154
   0.313        -19.155
   0.315        -19.156
   0.318        -19.157
   0.320        -19.157
   0.322        -19.158
   0.324        -19.159
   0.326        -19.160
   0.328        -19.161
   0.330        -19.161
   0.333        -19.162
   0.335        -19.163
   0.337        -19.164
   0.339        -19.165
   0.341        -19.166
   0.344        -19.167
   0.346        -19.168
   0.348        -19.169
   0.350        -19.170
   0.352        -19.171
   0.354        -19.172
   0.356        -19.173
   0.359        -19.174
   0.361        -19.175
   0.363        -19.176
   0.365        -19.176
   0.367        -19.177
   0.369        -19.178
   0.372        -19.179
   0.374        -19.180
   0.376        -19.181
   0.378        -19.182
   0.380        -19.183
   0.383        -19.184
   0.385        -19.185
   0.387        -19.186
   0.389        -19.187
   0.391        -19.189
   0.393        -19.189
   0.396        -19.191
   0.398        -19.192
   0.400        -19.193
   0.402        -19.194
   0.404        -19.195
   0.406        -19.197
   0.409        -19.198
   0.411        -19.199
   0.413        -19.201
   0.415        -19.202
   0.417        -19.204
   0.420        -19.205
   0.422        -19.206
   0.424        -19.208
   0.426        -19.209
   0.428        -19.211
   0.430        -19.212
   0.432        -19.214
   0.435        -19.215
   0.437        -19.217
   0.439        -19.218
   0.441        -19.220
   0.443        -19.221
   0.446        -19.223
   0.448        -19.225
   0.450        -19.226
   0.452        -19.228
   0.454        -19.230
   0.456        -19.232
   0.459        -19.234
   0.461        -19.236
   0.463        -19.238
   0.465        -19.240
   0.467        -19.242
   0.469        -19.244
   0.472        -19.246
   0.474        -19.247
   0.476        -19.249
   0.478        -19.251
   0.480        -19.253
   0.482        -19.255
   0.485        -19.257
   0.487        -19.259
   0.489        -19.260
   0.491        -19.261
   0.493        -19.261
   0.495        -19.262
   0.498        -19.262
   0.500        -19.263
   0.502        -19.263
   0.504        -19.264
   0.506        -19.264
   0.510        -19.265
   0.512        -19.264
   0.513        -19.264
   0.515        -19.264
   0.517        -19.263
   0.519        -19.263
   0.522        -19.262
   0.524        -19.262
   0.526        -19.261
   0.528        -19.261
   0.530        -19.260
   0.532        -19.260
   0.535        -19.260
   0.537        -19.259
   0.539        -19.259
   0.541        -19.258
   0.543        -19.258
   0.545        -19.257
   0.548        -19.257
   0.550        -19.256
   0.552        -19.256
   0.554        -19.256
   0.556        -19.255
   0.558        -19.255
   0.561        -19.255
   0.563        -19.254
   0.565        -19.254
   0.567        -19.253
   0.569        -19.253
   0.572        -19.253
   0.574        -19.253
   0.576        -19.253
   0.578        -19.253
   0.580        -19.253
   0.582        -19.253
   0.585        -19.253
   0.587        -19.253
   0.589        -19.253
   0.591        -19.253
   0.593        -19.253
   0.595        -19.253
   0.598        -19.254
   0.600        -19.254
   0.602        -19.254
   0.604        -19.255
   0.606        -19.255
   0.608        -19.255
   0.611        -19.256
   0.613        -19.256
   0.615        -19.256
   0.617        -19.257
   0.619        -19.257
   0.621        -19.257
   0.624        -19.258
   0.626        -19.258
   0.628        -19.258
   0.630        -19.259
   0.632        -19.259
   0.634        -19.259
   0.637        -19.260
   0.639        -19.260
   0.641        -19.260
   0.643        -19.261
   0.645        -19.261
   0.647        -19.262
   0.650        -19.262
   0.652        -19.262
   0.654        -19.263
   0.656        -19.263
   0.658        -19.263
   0.660        -19.264
   0.663        -19.264
   0.665        -19.265
   0.667        -19.265
   0.669        -19.266
   0.671        -19.266
   0.673        -19.266
   0.676        -19.267
   0.678        -19.267
   0.680        -19.268
   0.682        -19.268
   0.684        -19.269
   0.687        -19.269
   0.689        -19.270
   0.691        -19.270
   0.693        -19.271
   0.695        -19.271
   0.697        -19.272
   0.700        -19.272
   0.702        -19.273
   0.704        -19.274
   0.706        -19.275
   0.708        -19.275
   0.710        -19.276
   0.713        -19.277
   0.715        -19.278
   0.717        -19.278
   0.719        -19.279
   0.721        -19.280
   0.723        -19.281
   0.726        -19.282
   0.728        -19.283
   0.730        -19.284
   0.732        -19.285
   0.734        -19.286
   0.736        -19.287
   0.739        -19.288
   0.741        -19.289
   0.743        -19.290
   0.745        -19.292
   0.747        -19.293
   0.750        -19.294
   0.752        -19.295
   0.754        -19.296
   0.756        -19.297
   0.758        -19.298
   0.760        -19.299
   0.762        -19.300
   0.765        -19.301
   0.767        -19.303
   0.769        -19.304
   0.771        -19.305
   0.773        -19.306
   0.776        -19.308
   0.778        -19.309
   0.780        -19.310
   0.782        -19.312
   0.784        -19.313
   0.786        -19.315
   0.789        -19.316
   0.791        -19.318
   0.793        -19.320
   0.795        -19.321
   0.797        -19.323
   0.799        -19.324
   0.802        -19.326
   0.804        -19.328
   0.806        -19.330
   0.808        -19.332
   0.810        -19.334
   0.812        -19.336
   0.815        -19.338
   0.817        -19.340
   0.819        -19.342
   0.821        -19.344
   0.823        -19.346
   0.825        -19.348
   0.828        -19.350
   0.830        -19.352
   0.832        -19.355
   0.834        -19.357
   0.836        -19.359
   0.838        -19.361
   0.841        -19.364
   0.843        -19.366
   0.845        -19.368
   0.847        -19.371
   0.849        -19.373
   0.852        -19.376
   0.854        -19.378
   0.856        -19.381
   0.858        -19.383
   0.860        -19.386
   0.862        -19.388
   0.865        -19.391
   0.867        -19.393
   0.869        -19.396
   0.871        -19.399
   0.873        -19.401
   0.875        -19.404
   0.878        -19.407
   0.880        -19.409
   0.882        -19.412
   0.884        -19.414
   0.886        -19.418
   0.888        -19.421
   0.891        -19.424
   0.893        -19.427
   0.895        -19.431
   0.897        -19.434
   0.899        -19.437
   0.901        -19.440
   0.904        -19.444
   0.906        -19.447
   0.908        -19.451
   0.910        -19.455
   0.912        -19.459
   0.915        -19.463
   0.917        -19.467
   0.919        -19.470
   0.921        -19.474
   0.923        -19.478
   0.925        -19.482
   0.928        -19.487
   0.930        -19.491
   0.932        -19.496
   0.934        -19.501
   0.936        -19.506
   0.938        -19.511
   0.941        -19.515
   0.943        -19.520
   0.945        -19.525
   0.947        -19.530
   0.949        -19.536
   0.951        -19.543
   0.954        -19.549
   0.956        -19.556
   0.958        -19.562
   0.960        -19.569
   0.962        -19.576
   0.964        -19.582
   0.967        -19.589
   0.969        -19.594
   0.971        -19.600
   0.973        -19.605
   0.975        -19.610
   0.977        -19.615
   0.980        -19.620
   0.982        -19.625
   0.984        -19.630
   0.986        -19.635
   0.988        -19.644
   0.990        -19.653
   0.993        -19.659
   0.995        -19.665
   0.997        -19.670
   0.999        -19.676
   1.001        -19.682
   1.004        -19.688
   1.006        -19.694
   1.008        -19.700
   1.010        -19.707
   1.012        -19.718
   1.014        -19.730
   1.017        -19.741
   1.019        -19.752
   1.021        -19.763
   1.023        -19.775
   1.025        -19.786
   1.027        -19.797
   1.030        -19.809
   1.032        -19.823
   1.034        -19.840
   1.036        -19.856
   1.038        -19.873
   1.040        -19.889
   1.043        -19.905
   1.045        -19.921
   1.047        -19.938
   1.049        -19.954
   1.051        -19.972
   1.053        -19.997
   1.056        -20.023
   1.058        -20.049
   1.060        -20.075
   1.062        -20.102
   1.064        -20.128
   1.066        -20.154
   1.069        -20.180
   1.071        -20.206
   1.073        -20.246
   1.075        -20.300
   1.077        -20.354
   1.079        -20.408
   1.082        -20.462
   1.084        -20.515
   1.086        -20.569
   1.088        -20.623
   1.090        -20.677
   1.093        -20.731
   1.095        -20.786
   1.097        -20.841
   1.099        -20.896
   1.101        -20.951
   1.103        -21.006
   1.106        -21.061
   1.108        -21.116
   1.110        -21.171
   1.112        -21.234
   1.114        -21.267
   1.117        -21.270
   1.119        -21.273
   1.121        -21.277
   1.123        -21.280
   1.125        -21.283
   1.127        -21.286
   1.129        -21.289
   1.131        -21.292
   1.134        -21.296
   1.136        -21.298
   1.138        -21.301
   1.140        -21.304
   1.143        -21.307
   1.145        -21.310
   1.147        -21.313
   1.149        -21.316
   1.151        -21.319
   1.153        -21.322
   1.155        -21.324
   1.158        -21.327
   1.160        -21.330
   1.162        -21.332
   1.164        -21.335
   1.166        -21.338
   1.169        -21.341
   1.171        -21.343
   1.173        -21.346
   1.175        -21.348
   1.177        -21.351
   1.180        -21.354
   1.181        -21.357
   1.184        -21.359
   1.186        -21.362
   1.188        -21.365
   1.190        -21.368
   1.192        -21.370
   1.195        -21.373
   1.197        -21.376
   1.199        -21.378
   1.201        -21.381
   1.203        -21.383
   1.205        -21.386
   1.208        -21.389
   1.210        -21.392
   1.212        -21.394
   1.214        -21.397
   1.216        -21.400
   1.218        -21.402
   1.220        -21.405
   1.223        -21.408
   1.225        -21.410
   1.227        -21.413
   1.229        -21.415
   1.232        -21.418
   1.234        -21.420
   1.236        -21.423
   1.238        -21.426
   1.240        -21.428
   1.242        -21.431
   1.245        -21.433
   1.247        -21.436
   1.249        -21.438
   1.251        -21.441
   1.253        -21.443
   1.255        -21.446
   1.258        -21.448
   1.260        -21.451
   1.262        -21.454
   1.264        -21.457
   1.266        -21.460
   1.268        -21.462
   1.270        -21.465
   1.273        -21.468
   1.275        -21.471
   1.277        -21.474
   1.279        -21.476
   1.281        -21.479
   1.284        -21.483
   1.286        -21.485
   1.288        -21.489
   1.290        -21.491
   1.292        -21.495
   1.294        -21.498
   1.297        -21.501
   1.299        -21.503
   1.301        -21.507
   1.303        -21.510
   1.305        -21.514
   1.307        -21.517
   1.310        -21.520
   1.312        -21.524
   1.314        -21.527
   1.316        -21.530
   1.318        -21.533
   1.320        -21.537
   1.323        -21.540
   1.325        -21.544
   1.327        -21.547
   1.329        -21.550
   1.331        -21.554
   1.334        -21.558
   1.336        -21.561
   1.338        -21.565
   1.340        -21.568
   1.342        -21.571
   1.344        -21.575
   1.346        -21.579
   1.349        -21.583
   1.351        -21.587
   1.353        -21.590
   1.355        -21.594
   1.357        -21.598
   1.359        -21.602
   1.362        -21.606
   1.364        -21.609
   1.366        -21.613
   1.368        -21.616
   1.370        -21.620
   1.373        -21.623
   1.375        -21.626
   1.377        -21.630
   1.379        -21.634
   1.381        -21.637
   1.383        -21.640
   1.386        -21.643
   1.388        -21.645
   1.390        -21.648
   1.392        -21.650
   1.394        -21.653
   1.397        -21.655
   1.399        -21.658
   1.401        -21.660
   1.403        -21.663
   1.405        -21.665
   1.407        -21.668
   1.410        -21.670
   1.412        -21.673
   1.414        -21.676
   1.416        -21.678
   1.418        -21.681
   1.420        -21.683
   1.423        -21.686
   1.425        -21.688
   1.427        -21.691
   1.429        -21.693
   1.431        -21.696
   1.433        -21.698
   1.436        -21.700
   1.438        -21.703
   1.440        -21.705
   1.442        -21.708
   1.444        -21.710
   1.446        -21.712
   1.449        -21.714
   1.451        -21.717
   1.453        -21.719
   1.455        -21.721
   1.457        -21.723
   1.460        -21.725
   1.462        -21.727
   1.464        -21.729
   1.466        -21.731
   1.468        -21.733
   1.470        -21.735
   1.472        -21.736
   1.475        -21.738
   1.477        -21.740
   1.479        -21.741
   1.481        -21.743
   1.483        -21.745
   1.486        -21.747
   1.488        -21.748
   1.490        -21.749
   1.492        -21.750
   1.494        -21.751
   1.496        -21.752
   1.498        -21.753
   1.501        -21.754
   1.503        -21.756
   1.505        -21.757
   1.507        -21.758
   1.509        -21.759
   1.512        -21.759
   1.514        -21.760
   1.516        -21.760
   1.518        -21.761
   1.520        -21.762
   1.522        -21.762
   1.525        -21.763
   1.527        -21.763
   1.529        -21.764
   1.531        -21.764
   1.533        -21.764
   1.535        -21.764
   1.538        -21.764
   1.540        -21.764
   1.542        -21.764
   1.544        -21.764
   1.546        -21.765
   1.549        -21.765
   1.551        -21.765
   1.553        -21.765
   1.555        -21.765
   1.557        -21.765
   1.559        -21.765
   1.561        -21.765
   1.564        -21.765
   1.566        -21.765
   1.568        -21.765
   1.570        -21.765
   1.572        -21.765
   1.575        -21.765
   1.577        -21.765
   1.579        -21.765
   1.581        -21.765
   1.583        -21.765
   1.585        -21.765
   1.588        -21.765
   1.590        -21.842
   1.592        -22.018
   1.594        -22.023
   1.596        -22.029
   1.598        -22.034
   1.601        -22.039
   1.603        -22.045
   1.605        -22.051
   1.607        -22.056
   1.609        -22.061
   1.611        -22.067
   1.614        -22.073
   1.616        -22.079
   1.618        -22.086
   1.620        -22.092
   1.622        -22.098
   1.624        -22.105
   1.627        -22.111
   1.629        -22.117
   1.631        -22.124
   1.633        -22.130
   1.635        -22.138
   1.637        -22.145
   1.640        -22.152
   1.642        -22.159
   1.644        -22.167
   1.646        -22.174
   1.648        -22.181
   1.651        -22.188
   1.653        -22.196
   1.655        -22.204
   1.657        -22.212
   1.659        -22.221
   1.661        -22.229
   1.664        -22.238
   1.666        -22.246
   1.668        -22.254
   1.670        -22.263
   1.672        -22.271
   1.674        -22.280
   1.676        -22.290
   1.679        -22.301
   1.681        -22.311
   1.683        -22.321
   1.685        -22.331
   1.687        -22.342
   1.690        -22.352
   1.692        -22.362
   1.694        -22.373
   1.696        -22.386
   1.699        -22.403
   1.701        -22.417
   1.703        -22.431
   1.705        -22.445
   1.707        -22.459
   1.709        -22.474
   1.711        -22.489
   1.714        -22.505
   1.716        -22.516
   1.718        -22.541
   1.720        -22.566
   1.722        -22.597
   1.724        -22.627
   1.727        -22.658
   1.729        -22.688
   1.731        -22.719
   1.733        -22.749
   1.735        -22.779
   1.737        -22.805
   1.739        -22.824
   1.742        -22.842
   1.744        -22.860
   1.746        -22.878
   1.748        -22.897
   1.750        -22.915
   1.753        -22.933
   1.755        -22.951
   1.757        -22.969
   1.759        -22.979
   1.761        -22.987
   1.763        -22.995
   1.766        -23.003
   1.768        -23.012
   1.770        -23.020
   1.772        -23.028
   1.774        -23.036
   1.776        -23.044
   1.779        -23.051
   1.781        -23.054
   1.783        -23.057
   1.785        -23.061
   1.787        -23.064
   1.789        -23.067
   1.792        -23.070
   1.794        -23.074
   1.796        -23.077
   1.798        -23.080
   1.800        -23.082
   1.802        -23.084
   1.805        -23.086
   1.807        -23.087
   1.809        -23.089
   1.811        -23.091
   1.813        -23.092
   1.816        -23.094
   1.818        -23.095
   1.820        -23.097
   1.822        -23.098
   1.824        -23.099
   1.826        -23.101
   1.829        -23.102
   1.831        -23.103
   1.833        -23.104
   1.835        -23.105
   1.837        -23.106
   1.839        -23.108
   1.842        -23.109
   1.844        -23.110
   1.846        -23.111
   1.848        -23.112
   1.850        -23.113
   1.852        -23.114
   1.855        -23.116
   1.857        -23.117
   1.859        -23.118
   1.861        -23.119
   1.863        -23.120
   1.865        -23.121
   1.868        -23.122
   1.870        -23.123
   1.872        -23.125
   1.874        -23.126
   1.876        -23.127
   1.878        -23.128
   1.881        -23.129
   1.883        -23.130
   1.885        -23.132
   1.887        -23.133
   1.889        -23.134
   1.891        -23.135
   1.894        -23.136
   1.896        -23.138
   1.898        -23.139
   1.900        -23.140
   1.902        -23.141
   1.905        -23.143
   1.907        -23.144
   1.909        -23.145
   1.911        -23.147
   1.913        -23.148
   1.915        -23.149
   1.918        -23.151
   1.920        -23.152
   1.922        -23.153
   1.924        -23.155
   1.926        -23.156
   1.928        -23.157
   1.931        -23.159
   1.933        -23.160
   1.935        -23.161
   1.937        -23.163
   1.939        -23.164
   1.941        -23.166
   1.944        -23.167
   1.946        -23.168
   1.948        -23.170
   1.950        -23.171
   1.952        -23.173
   1.954        -23.174
   1.957        -23.176
   1.959        -23.178
   1.961        -23.179
   1.963        -23.181
   1.965        -23.182
   1.967        -23.184
   1.970        -23.185
   1.972        -23.187
   1.974        -23.188
   1.976        -23.190
   1.978        -23.191
   1.980        -23.193
   1.983        -23.195
   1.985        -23.196
   1.987        -23.198
   1.989        -23.200
   1.991        -23.201
   1.993        -23.203
   1.996        -23.205
   1.998        -23.206
   2.000        -23.208
   2.002        -23.210
   2.004        -23.211
   2.007        -23.213
   2.009        -23.215
   2.011        -23.217
   2.013        -23.218
   2.015        -23.220
   2.017        -23.222
   2.020        -23.224
   2.022        -23.226
   2.024        -23.227
   2.026        -23.229
   2.028        -23.231
   2.030        -23.233
   2.033        -23.235
   2.035        -23.236
   2.037        -23.238
   2.039        -23.240
   2.041        -23.242
   2.043        -23.244
   2.046        -23.246
   2.048        -23.248
   2.050        -23.250
   2.052        -23.251
   2.054        -23.253
   2.056        -23.255
   2.059        -23.257
   2.061        -23.259
   2.063        -23.261
   2.065        -23.263
   2.067        -23.265
   2.069        -23.267
   2.072        -23.269
   2.074        -23.271
   2.076        -23.273
   2.078        -23.275
   2.080        -23.277
   2.083        -23.279
   2.085        -23.281
   2.087        -23.283
   2.089        -23.285
   2.091        -23.287
   2.093        -23.289
   2.096        -23.291
   2.098        -23.293
   2.100        -23.295
   2.102        -23.297
   2.104        -23.299
   2.106        -23.301
   2.109        -23.303
   2.111        -23.305
   2.113        -23.307
   2.115        -23.309
   2.117        -23.311
   2.120        -23.313
   2.122        -23.315
   2.124        -23.317
   2.126        -23.319
   2.128        -23.321
   2.130        -23.323
   2.133        -23.325
   2.135        -23.327
   2.137        -23.329
   2.139        -23.331
   2.141        -23.333
   2.143        -23.335
   2.145        -23.337
   2.148        -23.340
   2.150        -23.341
   2.152        -23.343
   2.154        -23.345
   2.157        -23.348
   2.158        -23.349
   2.161        -23.352
   2.163        -23.353
   2.165        -23.356
   2.167        -23.357
   2.169        -23.360
   2.172        -23.362
   2.174        -23.364
   2.176        -23.366
   2.178        -23.368
   2.180        -23.370
   2.183        -23.372
   2.185        -23.374
   2.187        -23.375
   2.189        -23.377
   2.191        -23.379
   2.193        -23.381
   2.195        -23.383
   2.197        -23.385
   2.200        -23.387
   2.202        -23.389
   2.204        -23.391
   2.206        -23.393
   2.208        -23.395
   2.211        -23.397
   2.213        -23.399
   2.215        -23.401
   2.217        -23.403
   2.219        -23.405
   2.221        -23.407
   2.224        -23.408
   2.226        -23.411
   2.228        -23.412
   2.230        -23.414
   2.232        -23.416
   2.235        -23.418
   2.237        -23.420
   2.239        -23.421
   2.241        -23.424
   2.243        -23.425
   2.245        -23.427
   2.247        -23.429
   2.250        -23.431
   2.252        -23.432
   2.254        -23.434
   2.256        -23.436
   2.259        -23.438
   2.261        -23.440
   2.263        -23.441
   2.265        -23.443
   2.267        -23.445
   2.269        -23.446
   2.271        -23.448
   2.274        -23.450
   2.276        -23.451
   2.278        -23.453
   2.280        -23.455
   2.282        -23.456
   2.284        -23.458
   2.287        -23.459
   2.289        -23.461
   2.291        -23.462
   2.293        -23.464
   2.295        -23.465
   2.297        -23.467
   2.299        -23.468
   2.302        -23.470
   2.304        -23.472
   2.306        -23.473
   2.308        -23.474
   2.310        -23.476
   2.313        -23.477
   2.315        -23.479
   2.317        -23.480
   2.319        -23.482
   2.321        -23.483
   2.323        -23.485
   2.326        -23.486
   2.328        -23.487
   2.330        -23.489
   2.332        -23.490
   2.334        -23.491
   2.337        -23.493
   2.339        -23.494
   2.341        -23.495
   2.343        -23.497
   2.345        -23.498
   2.347        -23.499
   2.349        -23.501
   2.352        -23.502
   2.354        -23.503
   2.356        -23.505
   2.358        -23.506
   2.360        -23.507
   2.363        -23.509
   2.365        -23.510
   2.367        -23.511
   2.369        -23.513
   2.371        -23.514
   2.374        -23.515
   2.376        -23.517
   2.378        -23.518
   2.380        -23.519
   2.382        -23.521
   2.384        -23.522
   2.386        -23.524
   2.389        -23.525
   2.391        -23.527
   2.393        -23.528
   2.395        -23.530
   2.397        -23.531
   2.400        -23.532
   2.402        -23.534
   2.404        -23.535
   2.406        -23.537
   2.408        -23.539
   2.410        -23.541
   2.413        -23.542
   2.415        -23.544
   2.417        -23.546
   2.419        -23.547
   2.421        -23.549
   2.423        -23.551
   2.425        -23.552
   2.428        -23.554
   2.430        -23.555
   2.432        -23.556
   2.434        -23.558
   2.436        -23.559
   2.439        -23.561
   2.441        -23.562
   2.443        -23.563
   2.445        -23.564
   2.447        -23.565
   2.449        -23.566
   2.452        -23.567
   2.454        -23.567
   2.456        -23.568
   2.458        -23.569
   2.460        -23.570
   2.462        -23.570
   2.465        -23.571
   2.467        -23.572
   2.469        -23.573
   2.471        -23.573
   2.473        -23.574
   2.475        -23.575
   2.478        -23.575
   2.480        -23.576
   2.482        -23.577
   2.484        -23.577
   2.486        -23.578
   2.489        -23.579
   2.491        -23.580
   2.493        -23.580
   2.495        -23.581
   2.497        -23.582
   2.499        -23.582
   2.502        -23.583
   2.504        -23.584
   2.506        -23.584
   2.508        -23.585
   2.510        -23.586
   2.512        -23.587
   2.514        -23.587
   2.517        -23.588
   2.519        -23.589
   2.521        -23.590
   2.523        -23.591
   2.525        -23.591
   2.528        -23.592
   2.530        -23.593
   2.532        -23.594
   2.534        -23.595
   2.536        -23.596
   2.538        -23.597
   2.541        -23.598
   2.543        -23.599
   2.545        -23.600
   2.547        -23.600
   2.549        -23.602
   2.552        -23.603
   2.554        -23.604
   2.556        -23.605
   2.558        -23.606
   2.560        -23.608
   2.562        -23.609
   2.565        -23.610
   2.567        -23.611
   2.569        -23.612
   2.571        -23.614
   2.573        -23.615
   2.575        -23.617
   2.578        -23.619
   2.580        -23.620
   2.582        -23.622
   2.584        -23.623
   2.586        -23.625
   2.588        -23.626
   2.590        -23.628
   2.593        -23.630
   2.595        -23.632
   2.597        -23.634
   2.599        -23.637
   2.601        -23.639
   2.604        -23.641
   2.606        -23.643
   2.608        -23.645
   2.610        -23.647
   2.612        -23.650
   2.614        -23.653
   2.617        -23.656
   2.619        -23.659
   2.621        -23.661
   2.623        -23.664
   2.625        -23.667
   2.627        -23.670
   2.630        -23.673
   2.632        -23.676
   2.634        -23.680
   2.636        -23.684
   2.638        -23.688
   2.641        -23.692
   2.643        -23.696
   2.645        -23.700
   2.647        -23.704
   2.649        -23.708
   2.651        -23.712
   2.654        -23.717
   2.656        -23.723
   2.658        -23.728
   2.660        -23.734
   2.662        -23.739
   2.664        -23.745
   2.666        -23.750
   2.669        -23.756
   2.671        -23.761
   2.673        -23.767
   2.675        -23.773
   2.677        -23.780
   2.680        -23.787
   2.682        -23.794
   2.684        -23.801
   2.686        -23.808
   2.688        -23.814
   2.690        -23.821
   2.693        -23.828
   2.695        -23.835
   2.697        -23.842
   2.699        -23.848
   2.701        -23.855
   2.703        -23.861
   2.706        -23.868
   2.708        -23.875
   2.710        -23.882
   2.712        -23.888
   2.714        -23.895
   2.716        -23.901
   2.719        -23.907
   2.721        -23.912
   2.723        -23.918
   2.725        -23.924
   2.727        -23.930
   2.729        -23.935
   2.732        -23.941
   2.734        -23.947
   2.736        -23.952
   2.738        -23.958
   2.740        -23.963
   2.743        -23.968
   2.745        -23.973
   2.747        -23.978
   2.749        -23.983
   2.751        -23.988
   2.753        -23.993
   2.756        -23.998
   2.758        -24.003
   2.760        -24.008
   2.762        -24.013
   2.764        -24.017
   2.766        -24.022
   2.769        -24.027
   2.771        -24.031
   2.773        -24.036
   2.775        -24.041
   2.777        -24.045
   2.779        -24.049
   2.782        -24.054
   2.784        -24.058
   2.786        -24.062
   2.788        -24.066
   2.790        -24.070
   2.792        -24.074
   2.795        -24.078
   2.797        -24.083
   2.799        -24.087
   2.801        -24.090
   2.803        -24.094
   2.805        -24.098
   2.808        -24.102
   2.810        -24.106
   2.812        -24.109
   2.814        -24.113
   2.816        -24.117
   2.819        -24.120
   2.821        -24.124
   2.823        -24.127
   2.825        -24.131
   2.827        -24.134
   2.829        -24.137
   2.832        -24.141
   2.834        -24.144
   2.836        -24.147
   2.838        -24.151
   2.840        -24.154
   2.842        -24.157
   2.845        -24.160
   2.847        -24.163
   2.849        -24.165
   2.851        -24.168
   2.853        -24.171
   2.855        -24.174
   2.858        -24.177
   2.860        -24.180
   2.862        -24.183
   2.864        -24.185
   2.866        -24.188
   2.868        -24.190
   2.871        -24.192
   2.873        -24.195
   2.875        -24.197
   2.877        -24.200
   2.879        -24.203
   2.881        -24.205
   2.884        -24.207
   2.886        -24.210
   2.888        -24.212
   2.890        -24.214
   2.892        -24.217
   2.894        -24.219
   2.897        -24.221
   2.899        -24.223
   2.901        -24.226
   2.903        -24.228
   2.905        -24.230
   2.908        -24.232
   2.910        -24.234
   2.912        -24.236
   2.914        -24.237
   2.916        -24.239
   2.918        -24.241
   2.921        -24.243
   2.923        -24.245
   2.925        -24.247
   2.927        -24.248
   2.929        -24.250
   2.931        -24.251
   2.934        -24.253
   2.936        -24.255
   2.938        -24.256
   2.940        -24.258
   2.942        -24.259
   2.944        -24.261
   2.947        -24.262
   2.949        -24.264
   2.951        -24.265
   2.953        -24.267
   2.955        -24.268
   2.957        -24.269
   2.960        -24.271
   2.962        -24.272
   2.964        -24.274
   2.966        -24.275
   2.968        -24.276
   2.970        -24.278
   2.973        -24.279
   2.975        -24.280
   2.977        -24.281
   2.979        -24.283
   2.981        -24.284
   2.984        -24.285
   2.986        -24.287
   2.988        -24.288
   2.990        -24.289
   2.992        -24.290
   2.994        -24.291
   2.997        -24.293
   2.999        -24.294
   3.001        -24.295
   3.003        -24.296
   3.005        -24.298
   3.007        -24.299
   3.010        -24.300
   3.012        -24.301
   3.014        -24.302
   3.016        -24.303
   3.018        -24.304
   3.020        -24.306
   3.023        -24.307
   3.025        -24.308
   3.027        -24.309
   3.029        -24.310
   3.031        -24.311
   3.033        -24.312
   3.036        -24.313
   3.038        -24.314
   3.040        -24.316
   3.042        -24.317
   3.044        -24.318
   3.046        -24.319
   3.049        -24.320
   3.051        -24.321
   3.053        -24.322
   3.055        -24.323
   3.057        -24.324
   3.060        -24.325
   3.062        -24.327
   3.064        -24.327
   3.066        -24.329
   3.068        -24.330
   3.070        -24.331
   3.073        -24.332
   3.075        -24.333
   3.077        -24.334
   3.079        -24.335
   3.081        -24.336
   3.083        -24.337
   3.086        -24.338
   3.088        -24.339
   3.090        -24.340
   3.092        -24.341
   3.094        -24.342
   3.096        -24.343
   3.099        -24.344
   3.101        -24.345
   3.103        -24.346
   3.105        -24.347
   3.107        -24.348
   3.109        -24.349
   3.112        -24.350
   3.114        -24.351
   3.116        -24.352
   3.118        -24.353
   3.120        -24.354
   3.123        -24.355
   3.125        -24.355
   3.127        -24.356
   3.129        -24.357
   3.131        -24.358
   3.133        -24.359
   3.136        -24.360
   3.138        -24.361
   3.140        -24.362
   3.142        -24.363
   3.144        -24.364
   3.146        -24.365
   3.149        -24.366
   3.151        -24.367
   3.153        -24.368
   3.155        -24.369
   3.157        -24.370
   3.159        -24.370
   3.162        -24.372
   3.164        -24.372
   3.166        -24.373
   3.168        -24.374
   3.170        -24.375
   3.172        -24.376
   3.175        -24.377
   3.177        -24.378
   3.179        -24.379
   3.181        -24.380
   3.183        -24.381
   3.185        -24.382
   3.188        -24.383
   3.190        -24.384
   3.192        -24.385
   3.194        -24.386
   3.196        -24.387
   3.199        -24.387
   3.201        -24.388
   3.203        -24.389
   3.205        -24.390
   3.207        -24.391
   3.209        -24.392
   3.212        -24.393
   3.214        -24.394
   3.216        -24.395
   3.218        -24.396
   3.220        -24.397
   3.222        -24.398
   3.225        -24.399
   3.227        -24.400
   3.229        -24.401
   3.231        -24.402
   3.233        -24.403
   3.236        -24.404
   3.237        -24.404
   3.240        -24.405
   3.242        -24.406
   3.244        -24.407
   3.246        -24.408
   3.248        -24.409
   3.251        -24.410
   3.253        -24.411
   3.255        -24.412
   3.257        -24.412
   3.259        -24.413
   3.261        -24.414
   3.263        -24.415
   3.266        -24.416
   3.268        -24.417
   3.270        -24.418
   3.272        -24.419
   3.274        -24.419
   3.277        -24.420
   3.279        -24.421
   3.281        -24.422
   3.283        -24.423
   3.285        -24.424
   3.287        -24.425
   3.290        -24.425
   3.292        -24.426
   3.294        -24.427
   3.296        -24.428
   3.298        -24.429
   3.301        -24.430
   3.303        -24.431
   3.305        -24.432
   3.307        -24.434
   3.309        -24.435
   3.311        -24.436
   3.313        -24.437
   3.316        -24.438
   3.318        -24.439
   3.320        -24.440
   3.322        -24.441
   3.324        -24.443
   3.327        -24.444
   3.329        -24.445
   3.331        -24.446
   3.333        -24.447
   3.335        -24.448
   3.337        -24.450
   3.340        -24.451
   3.342        -24.452
   3.344        -24.453
   3.346        -24.454
   3.348        -24.455
   3.350        -24.456
   3.352        -24.457
   3.355        -24.458
   3.357        -24.460
   3.359        -24.461
   3.361        -24.462
   3.363        -24.463
   3.366        -24.464
   3.368        -24.465
   3.370        -24.466
   3.372        -24.467
   3.374        -24.468
   3.376        -24.469
   3.379        -24.470
   3.381        -24.472
   3.383        -24.473
   3.385        -24.474
   3.387        -24.475
   3.389        -24.476
   3.392        -24.477
   3.394        -24.478
   3.396        -24.479
   3.398        -24.480
   3.400        -24.481
   3.402        -24.482
   3.405        -24.483
   3.407        -24.484
   3.409        -24.485
   3.411        -24.486
   3.413        -24.487
   3.416        -24.488
   3.418        -24.489
   3.420        -24.490
   3.422        -24.491
   3.424        -24.492
   3.426        -24.493
   3.429        -24.494
   3.431        -24.495
   3.433        -24.496
   3.435        -24.497
   3.437        -24.498
   3.439        -24.499
   3.442        -24.500
   3.444        -24.501
   3.446        -24.502
   3.448        -24.503
   3.450        -24.504
   3.452        -24.505
   3.455        -24.506
   3.457        -24.507
   3.459        -24.508
   3.461        -24.509
   3.463        -24.510
   3.466        -24.511
   3.468        -24.512
   3.470        -24.513
   3.472        -24.514
   3.474        -24.515
   3.476        -24.516
   3.478        -24.517
   3.481        -24.518
   3.483        -24.519
   3.485        -24.520
   3.487        -24.521
   3.489        -24.522
   3.492        -24.523
   3.494        -24.524
   3.496        -24.525
   3.498        -24.525
   3.500        -24.526
   3.502        -24.527
   3.505        -24.528
   3.507        -24.529
   3.509        -24.530
   3.511        -24.531
   3.513        -24.532
   3.515        -24.533
   3.518        -24.534
   3.520        -24.535
   3.522        -24.536
   3.524        -24.536
   3.526        -24.537
   3.528        -24.538
   3.531        -24.539
   3.533        -24.540
   3.535        -24.541
   3.537        -24.542
   3.539        -24.543
   3.541        -24.544
   3.544        -24.545
   3.546        -24.545
   3.548        -24.546
   3.550        -24.547
   3.552        -24.548
   3.555        -24.549
   3.557        -24.550
   3.559        -24.551
   3.561        -24.552
   3.563        -24.553
   3.565        -24.554
   3.568        -24.554
   3.570        -24.555
   3.572        -24.556
   3.574        -24.557
   3.576        -24.558
   3.578        -24.559
   3.581        -24.560
   3.583        -24.561
   3.585        -24.562
   3.587        -24.563
   3.589        -24.564
   3.591        -24.565
   3.594        -24.566
   3.596        -24.567
   3.598        -24.568
   3.600        -24.568
   3.602        -24.569
   3.604        -24.570
   3.607        -24.571
   3.609        -24.572
   3.611        -24.573
   3.613        -24.574
   3.615        -24.575
   3.617        -24.576
   3.620        -24.577
   3.622        -24.578
   3.624        -24.579
   3.626        -24.580
   3.628        -24.581
   3.630        -24.582
   3.633        -24.583
   3.635        -24.584
   3.637        -24.585
   3.639        -24.586
   3.641        -24.587
   3.644        -24.588
   3.646        -24.589
   3.648        -24.590
   3.650        -24.591
   3.652        -24.592
   3.654        -24.593
   3.657        -24.594
   3.659        -24.595
   3.661        -24.596
   3.663        -24.597
   3.665        -24.598
   3.667        -24.599
   3.670        -24.600
   3.672        -24.601
   3.674        -24.602
   3.676        -24.604
   3.678        -24.605
   3.680        -24.606
   3.683        -24.607
   3.685        -24.608
   3.687        -24.609
   3.689        -24.610
   3.691        -24.611
   3.693        -24.612
   3.696        -24.613
   3.698        -24.614
   3.700        -24.615
   3.702        -24.616
   3.704        -24.618
   3.706        -24.619
   3.709        -24.620
   3.711        -24.621
   3.713        -24.622
   3.715        -24.623
   3.717        -24.624
   3.719        -24.626
   3.722        -24.627
   3.724        -24.628
   3.726        -24.629
   3.728        -24.630
   3.730        -24.631
   3.733        -24.633
   3.735        -24.634
   3.737        -24.635
   3.739        -24.636
   3.741        -24.638
   3.743        -24.639
   3.746        -24.640
   3.748        -24.641
   3.750        -24.643
   3.752        -24.644
   3.754        -24.645
   3.756        -24.646
   3.759        -24.648
   3.761        -24.649
   3.763        -24.650
   3.765        -24.652
   3.767        -24.653
   3.769        -24.655
   3.772        -24.656
   3.774        -24.657
   3.776        -24.659
   3.778        -24.660
   3.780        -24.662
   3.782        -24.663
   3.785        -24.664
   3.787        -24.666
   3.789        -24.667
   3.791        -24.669
   3.793        -24.670
   3.795        -24.672
   3.798        -24.673
   3.800        -24.675
   3.802        -24.676
   3.804        -24.678
   3.806        -24.680
   3.809        -24.681
   3.811        -24.683
   3.813        -24.684
   3.815        -24.686
   3.817        -24.687
   3.819        -24.689
   3.822        -24.690
   3.824        -24.692
   3.826        -24.693
   3.828        -24.695
   3.830        -24.696
   3.832        -24.698
   3.835        -24.699
   3.837        -24.701
   3.839        -24.702
   3.841        -24.704
   3.843        -24.705
   3.845        -24.706
   3.848        -24.707
   3.850        -24.708
   3.852        -24.709
   3.854        -24.710
   3.856        -24.711
   3.858        -24.712
   3.861        -24.713
   3.863        -24.714
   3.865        -24.714
   3.867        -24.715
   3.869        -24.716
   3.871        -24.717
   3.874        -24.717
   3.876        -24.718
   3.878        -24.719
   3.880        -24.719
   3.882        -24.720
   3.885        -24.721
   3.887        -24.722
   3.889        -24.723
   3.891        -24.723
   3.899        -24.725
   3.912        -24.730
   3.925        -24.734
   3.938        -24.738
   3.951        -24.742
   3.964        -24.746
   3.977        -24.749
   3.990        -24.753
   4.003        -24.757
   4.016        -24.761
   4.029        -24.764
   4.042        -24.768
   4.055        -24.772
   4.068        -24.775
   4.081        -24.779
   4.094        -24.783
   4.107        -24.786
   4.120        -24.790
   4.133        -24.794
   4.146        -24.798
   4.159        -24.801
   4.172        -24.805
   4.185        -24.810
   4.198        -24.814
   4.211        -24.819
   4.224        -24.824
   4.237        -24.829
   4.250        -24.834
   4.263        -24.840
   4.276        -24.847
   4.289        -24.854
   4.302        -24.861
   4.315        -24.869
   4.328        -24.878
   4.341        -24.886
   4.354        -24.895
   4.367        -24.905
   4.380        -24.915
   4.393        -24.925
   4.406        -24.936
   4.420        -24.947
   4.432        -24.958
   4.445        -24.970
   4.459        -24.982
   4.471        -24.994
   4.484        -25.007
   4.498        -25.020
   4.510        -25.032
   4.524        -25.046
   4.537        -25.059
   4.550        -25.072
   4.563        -25.086
   4.576        -25.100
   4.589        -25.114
   4.602        -25.129
   4.615        -25.143
   4.628        -25.158
   4.641        -25.173
   4.654        -25.188
   4.667        -25.203
   4.680        -25.218
   4.693        -25.233
   4.706        -25.249
   4.719        -25.265
   4.732        -25.280
   4.745        -25.296
   4.758        -25.313
   4.771        -25.329
   4.784        -25.345
   4.797        -25.361
   4.810        -25.378
   4.823        -25.395
   4.836        -25.412
   4.849        -25.429
   4.862        -25.446
   4.875        -25.464
   4.888        -25.481
   4.901        -25.499
   4.914        -25.517
   4.927        -25.535
   4.940        -25.553
   4.953        -25.572
   4.966        -25.590
   4.979        -25.609
   4.992        -25.627
   5.005        -25.646
   5.018        -25.665
   5.031        -25.684
   5.044        -25.703
   5.057        -25.723
   5.070        -25.742
   5.083        -25.762
   5.096        -25.781
   5.109        -25.801
   5.123        -25.821
   5.136        -25.841
   5.149        -25.861
   5.162        -25.881
   5.175        -25.901
   5.188        -25.922
   5.201        -25.942
   5.214        -25.962
   5.227        -25.982
   5.240        -26.003
   5.253        -26.023
   5.266        -26.044
   5.279        -26.065
   5.292        -26.085
   5.305        -26.106
   5.318        -26.127
   5.331        -26.148
   5.344        -26.169
   5.357        -26.190
   5.370        -26.212
   5.383        -26.233
   5.396        -26.255
   5.409        -26.278
   5.422        -26.300
   5.435        -26.323
   5.448        -26.345
   5.461        -26.369
   5.474        -26.392
   5.487        -26.415
   5.500        -26.439
   5.513        -26.463
   5.526        -26.488
   5.539        -26.513
   5.552        -26.538
   5.565        -26.563
   5.578        -26.589
   5.591        -26.615
   5.604        -26.642
   5.617        -26.669
   5.630        -26.696
   5.643        -26.724
   5.656        -26.752
   5.669        -26.781
   5.682        -26.810
   5.695        -26.839
   5.708        -26.869
   5.721        -26.900
   5.734        -26.931
   5.748        -26.963
   5.761        -26.994
   5.774        -27.027
   5.787        -27.060
   5.800        -27.094
   5.813        -27.129
   5.826        -27.164
   5.839        -27.200
   5.852        -27.236
   5.865        -27.273
   5.878        -27.311
   5.891        -27.350
   5.904        -27.389
   5.917        -27.429
   5.930        -27.470
   5.943        -27.512
   5.956        -27.554
   5.969        -27.597
   5.982        -27.642
   5.995        -27.688
   6.008        -27.734
   6.021        -27.781
   6.034        -27.829
   6.047        -27.878
   6.060        -27.929
   6.073        -27.981
   6.086        -28.033
   6.099        -28.087
   6.112        -28.142
   6.125        -28.198
   6.138        -28.255
   6.151        -28.313
   6.164        -28.374
   6.177        -28.436
   6.190        -28.498
   6.203        -28.563
   6.216        -28.629
   6.229        -28.696
   6.242        -28.765
   6.255        -28.836
   6.268        -28.908
   6.281        -28.982
   6.294        -29.058
   6.307        -29.135
   6.320        -29.214
   6.334        -29.296
   6.346        -29.379
   6.359        -29.464
   6.372        -29.552
   6.386        -29.642
   6.399        -29.734
   6.411        -29.828
   6.425        -29.925
   6.438        -30.024
   6.451        -30.126
   6.464        -30.229
   6.477        -30.334
   6.490        -30.443
   6.503        -30.556
   6.516        -30.671
   6.529        -30.788
   6.542        -30.910
   6.555        -31.034
   6.568        -31.161
   6.581        -31.292
   6.594        -31.426
   6.607        -31.566
   6.620        -31.708
   6.633        -31.851
   6.646        -31.997
   6.659        -32.149
   6.672        -32.307
   6.685        -32.467
   6.698        -32.632
   6.711        -32.802
   6.724        -32.978
   6.737        -33.156
   6.750        -33.337
   6.763        -33.530
   6.776        -33.732
   6.789        -33.933
   6.802        -34.136
   6.815        -34.346
   6.828        -34.585
   6.841        -34.845
   6.854        -35.144
   6.867        -35.772
   6.880        -36.823
   6.893        -40.525
