# log Energy    log Jnu
# (eV)          (ergs/s/cm2/Hz/Sr)
  -6.864        -20.199
  -6.820        -20.112
  -6.777        -20.025
  -6.734        -19.938
  -6.690        -19.851
  -6.647        -19.764
  -6.603        -19.678
  -6.560        -19.591
  -6.516        -19.504
  -6.473        -19.417
  -6.430        -19.330
  -6.386        -19.243
  -6.343        -19.157
  -6.299        -19.070
  -6.256        -18.983
  -6.212        -18.896
  -6.169        -18.809
  -6.126        -18.722
  -6.082        -18.635
  -6.039        -18.549
  -5.995        -18.462
  -5.952        -18.375
  -5.908        -18.288
  -5.865        -18.201
  -5.822        -18.114
  -5.778        -18.028
  -5.735        -17.941
  -5.691        -17.854
  -5.648        -17.767
  -5.605        -17.680
  -5.561        -17.594
  -5.518        -17.507
  -5.474        -17.420
  -5.431        -17.333
  -5.387        -17.246
  -5.344        -17.160
  -5.300        -17.073
  -5.257        -16.986
  -5.214        -16.899
  -5.170        -16.812
  -5.127        -16.726
  -5.083        -16.639
  -5.040        -16.552
  -4.996        -16.465
  -4.953        -16.379
  -4.910        -16.292
  -4.866        -16.206
  -4.823        -16.119
  -4.779        -16.032
  -4.736        -15.946
  -4.692        -15.859
  -4.649        -15.773
  -4.606        -15.686
  -4.562        -15.600
  -4.519        -15.513
  -4.475        -15.427
  -4.432        -15.341
  -4.388        -15.255
  -4.345        -15.168
  -4.302        -15.082
  -4.258        -14.996
  -4.215        -14.910
  -4.171        -14.825
  -4.128        -14.739
  -4.084        -14.653
  -4.041        -14.568
  -3.998        -14.482
  -3.954        -14.397
  -3.911        -14.313
  -3.867        -14.228
  -3.824        -14.143
  -3.781        -14.059
  -3.737        -13.975
  -3.693        -13.891
  -3.650        -13.808
  -3.607        -13.726
  -3.584        -13.686
  -3.582        -13.676
  -3.580        -13.674
  -3.577        -13.671
  -3.575        -13.667
  -3.573        -13.663
  -3.571        -13.659
  -3.569        -13.654
  -3.567        -13.650
  -3.564        -13.646
  -3.562        -13.642
  -3.560        -13.638
  -3.558        -13.634
  -3.556        -13.630
  -3.554        -13.626
  -3.551        -13.622
  -3.549        -13.617
  -3.547        -13.613
  -3.545        -13.609
  -3.543        -13.605
  -3.540        -13.601
  -3.538        -13.597
  -3.536        -13.593
  -3.534        -13.589
  -3.532        -13.585
  -3.530        -13.581
  -3.528        -13.577
  -3.525        -13.572
  -3.523        -13.568
  -3.521        -13.564
  -3.519        -13.560
  -3.517        -13.556
  -3.514        -13.552
  -3.512        -13.548
  -3.510        -13.544
  -3.508        -13.540
  -3.506        -13.536
  -3.504        -13.532
  -3.502        -13.527
  -3.499        -13.523
  -3.497        -13.519
  -3.495        -13.515
  -3.493        -13.511
  -3.491        -13.507
  -3.488        -13.503
  -3.486        -13.499
  -3.484        -13.495
  -3.482        -13.491
  -3.480        -13.487
  -3.477        -13.483
  -3.475        -13.479
  -3.473        -13.474
  -3.471        -13.471
  -3.469        -13.466
  -3.467        -13.462
  -3.464        -13.458
  -3.462        -13.454
  -3.460        -13.450
  -3.458        -13.446
  -3.456        -13.442
  -3.454        -13.438
  -3.451        -13.434
  -3.449        -13.430
  -3.447        -13.426
  -3.445        -13.422
  -3.443        -13.418
  -3.441        -13.414
  -3.438        -13.410
  -3.436        -13.406
  -3.434        -13.402
  -3.432        -13.398
  -3.430        -13.394
  -3.428        -13.390
  -3.425        -13.386
  -3.423        -13.382
  -3.421        -13.378
  -3.419        -13.374
  -3.417        -13.369
  -3.415        -13.366
  -3.412        -13.362
  -3.410        -13.358
  -3.408        -13.354
  -3.406        -13.349
  -3.404        -13.345
  -3.402        -13.341
  -3.399        -13.338
  -3.397        -13.333
  -3.395        -13.329
  -3.393        -13.325
  -3.391        -13.322
  -3.389        -13.317
  -3.386        -13.313
  -3.384        -13.309
  -3.382        -13.305
  -3.380        -13.302
  -3.378        -13.298
  -3.376        -13.294
  -3.373        -13.289
  -3.371        -13.285
  -3.369        -13.282
  -3.367        -13.278
  -3.365        -13.274
  -3.362        -13.270
  -3.360        -13.266
  -3.358        -13.262
  -3.356        -13.258
  -3.354        -13.254
  -3.352        -13.250
  -3.349        -13.246
  -3.347        -13.242
  -3.345        -13.238
  -3.343        -13.234
  -3.341        -13.230
  -3.339        -13.226
  -3.336        -13.222
  -3.334        -13.218
  -3.332        -13.214
  -3.330        -13.210
  -3.328        -13.206
  -3.326        -13.202
  -3.323        -13.198
  -3.321        -13.194
  -3.319        -13.191
  -3.317        -13.187
  -3.315        -13.183
  -3.313        -13.179
  -3.310        -13.175
  -3.308        -13.171
  -3.306        -13.167
  -3.304        -13.163
  -3.302        -13.159
  -3.300        -13.155
  -3.297        -13.152
  -3.295        -13.147
  -3.293        -13.144
  -3.291        -13.139
  -3.289        -13.136
  -3.287        -13.132
  -3.284        -13.128
  -3.282        -13.124
  -3.280        -13.120
  -3.278        -13.116
  -3.276        -13.113
  -3.273        -13.108
  -3.271        -13.105
  -3.269        -13.101
  -3.267        -13.097
  -3.265        -13.093
  -3.263        -13.089
  -3.260        -13.085
  -3.258        -13.081
  -3.256        -13.078
  -3.254        -13.074
  -3.252        -13.070
  -3.250        -13.066
  -3.247        -13.062
  -3.245        -13.058
  -3.243        -13.054
  -3.241        -13.051
  -3.239        -13.047
  -3.237        -13.043
  -3.234        -13.039
  -3.232        -13.035
  -3.230        -13.031
  -3.228        -13.027
  -3.226        -13.024
  -3.224        -13.020
  -3.221        -13.016
  -3.219        -13.012
  -3.217        -13.008
  -3.215        -13.005
  -3.213        -13.001
  -3.211        -12.997
  -3.208        -12.993
  -3.206        -12.989
  -3.204        -12.986
  -3.202        -12.982
  -3.200        -12.978
  -3.197        -12.974
  -3.195        -12.970
  -3.193        -12.966
  -3.191        -12.963
  -3.189        -12.959
  -3.187        -12.955
  -3.184        -12.951
  -3.182        -12.948
  -3.180        -12.944
  -3.178        -12.940
  -3.176        -12.936
  -3.174        -12.933
  -3.171        -12.929
  -3.169        -12.925
  -3.167        -12.921
  -3.165        -12.918
  -3.163        -12.914
  -3.161        -12.910
  -3.158        -12.906
  -3.156        -12.903
  -3.154        -12.899
  -3.152        -12.895
  -3.150        -12.892
  -3.148        -12.888
  -3.145        -12.884
  -3.143        -12.880
  -3.141        -12.877
  -3.139        -12.873
  -3.137        -12.869
  -3.135        -12.866
  -3.132        -12.862
  -3.130        -12.858
  -3.128        -12.854
  -3.126        -12.851
  -3.124        -12.847
  -3.122        -12.843
  -3.119        -12.840
  -3.117        -12.836
  -3.115        -12.832
  -3.113        -12.829
  -3.111        -12.825
  -3.108        -12.821
  -3.106        -12.818
  -3.104        -12.814
  -3.102        -12.811
  -3.100        -12.807
  -3.098        -12.803
  -3.095        -12.800
  -3.093        -12.796
  -3.091        -12.792
  -3.089        -12.789
  -3.087        -12.785
  -3.085        -12.781
  -3.082        -12.778
  -3.080        -12.774
  -3.078        -12.771
  -3.076        -12.767
  -3.074        -12.763
  -3.072        -12.760
  -3.069        -12.756
  -3.067        -12.753
  -3.065        -12.749
  -3.063        -12.746
  -3.061        -12.742
  -3.059        -12.738
  -3.056        -12.735
  -3.054        -12.731
  -3.052        -12.728
  -3.050        -12.724
  -3.048        -12.721
  -3.046        -12.717
  -3.043        -12.714
  -3.041        -12.710
  -3.039        -12.707
  -3.037        -12.703
  -3.035        -12.699
  -3.032        -12.696
  -3.030        -12.692
  -3.028        -12.689
  -3.026        -12.685
  -3.024        -12.682
  -3.022        -12.678
  -3.019        -12.675
  -3.017        -12.672
  -3.015        -12.668
  -3.013        -12.665
  -3.011        -12.661
  -3.009        -12.658
  -3.006        -12.654
  -3.004        -12.651
  -3.002        -12.647
  -3.000        -12.644
  -2.998        -12.640
  -2.996        -12.637
  -2.993        -12.634
  -2.991        -12.630
  -2.989        -12.627
  -2.987        -12.623
  -2.985        -12.620
  -2.983        -12.617
  -2.980        -12.613
  -2.978        -12.610
  -2.976        -12.606
  -2.974        -12.603
  -2.972        -12.600
  -2.970        -12.596
  -2.967        -12.593
  -2.965        -12.590
  -2.963        -12.586
  -2.961        -12.583
  -2.959        -12.580
  -2.956        -12.576
  -2.954        -12.573
  -2.952        -12.570
  -2.950        -12.566
  -2.948        -12.563
  -2.946        -12.560
  -2.944        -12.556
  -2.941        -12.553
  -2.939        -12.550
  -2.937        -12.546
  -2.935        -12.543
  -2.933        -12.540
  -2.930        -12.537
  -2.928        -12.534
  -2.926        -12.530
  -2.924        -12.527
  -2.922        -12.524
  -2.920        -12.521
  -2.917        -12.517
  -2.915        -12.514
  -2.913        -12.511
  -2.911        -12.508
  -2.909        -12.504
  -2.907        -12.501
  -2.904        -12.498
  -2.902        -12.495
  -2.900        -12.492
  -2.898        -12.489
  -2.896        -12.485
  -2.894        -12.482
  -2.891        -12.479
  -2.889        -12.476
  -2.887        -12.473
  -2.885        -12.470
  -2.883        -12.467
  -2.880        -12.463
  -2.878        -12.460
  -2.876        -12.457
  -2.874        -12.454
  -2.872        -12.451
  -2.870        -12.448
  -2.867        -12.445
  -2.865        -12.442
  -2.863        -12.439
  -2.861        -12.435
  -2.859        -12.433
  -2.857        -12.430
  -2.855        -12.426
  -2.852        -12.424
  -2.850        -12.421
  -2.848        -12.418
  -2.846        -12.414
  -2.843        -12.412
  -2.842        -12.408
  -2.839        -12.406
  -2.837        -12.402
  -2.835        -12.400
  -2.833        -12.397
  -2.831        -12.394
  -2.828        -12.391
  -2.826        -12.388
  -2.824        -12.385
  -2.822        -12.382
  -2.820        -12.379
  -2.817        -12.376
  -2.815        -12.374
  -2.813        -12.371
  -2.811        -12.368
  -2.809        -12.365
  -2.807        -12.362
  -2.805        -12.359
  -2.802        -12.356
  -2.800        -12.354
  -2.798        -12.351
  -2.796        -12.348
  -2.794        -12.345
  -2.792        -12.342
  -2.789        -12.339
  -2.787        -12.337
  -2.785        -12.334
  -2.783        -12.331
  -2.781        -12.328
  -2.779        -12.326
  -2.776        -12.323
  -2.774        -12.320
  -2.772        -12.318
  -2.770        -12.315
  -2.767        -12.312
  -2.765        -12.309
  -2.763        -12.307
  -2.761        -12.304
  -2.759        -12.301
  -2.757        -12.299
  -2.754        -12.296
  -2.753        -12.294
  -2.750        -12.291
  -2.748        -12.289
  -2.746        -12.286
  -2.744        -12.283
  -2.741        -12.281
  -2.739        -12.278
  -2.737        -12.276
  -2.735        -12.273
  -2.733        -12.271
  -2.731        -12.268
  -2.729        -12.266
  -2.726        -12.263
  -2.724        -12.261
  -2.722        -12.258
  -2.720        -12.256
  -2.718        -12.253
  -2.716        -12.251
  -2.713        -12.248
  -2.711        -12.246
  -2.709        -12.243
  -2.707        -12.241
  -2.705        -12.239
  -2.703        -12.236
  -2.700        -12.234
  -2.698        -12.231
  -2.696        -12.229
  -2.694        -12.227
  -2.692        -12.225
  -2.689        -12.223
  -2.687        -12.220
  -2.685        -12.218
  -2.683        -12.216
  -2.681        -12.213
  -2.679        -12.211
  -2.677        -12.209
  -2.674        -12.207
  -2.672        -12.205
  -2.670        -12.202
  -2.668        -12.200
  -2.666        -12.198
  -2.663        -12.196
  -2.661        -12.194
  -2.659        -12.191
  -2.657        -12.189
  -2.655        -12.187
  -2.653        -12.185
  -2.650        -12.183
  -2.648        -12.181
  -2.646        -12.179
  -2.644        -12.177
  -2.642        -12.175
  -2.640        -12.173
  -2.637        -12.171
  -2.635        -12.169
  -2.633        -12.167
  -2.631        -12.165
  -2.629        -12.163
  -2.626        -12.161
  -2.624        -12.159
  -2.622        -12.158
  -2.620        -12.156
  -2.618        -12.154
  -2.616        -12.152
  -2.614        -12.150
  -2.611        -12.148
  -2.609        -12.147
  -2.607        -12.145
  -2.605        -12.143
  -2.603        -12.141
  -2.600        -12.140
  -2.598        -12.138
  -2.596        -12.136
  -2.594        -12.134
  -2.592        -12.133
  -2.590        -12.131
  -2.587        -12.129
  -2.585        -12.128
  -2.583        -12.126
  -2.581        -12.125
  -2.579        -12.123
  -2.577        -12.122
  -2.574        -12.120
  -2.572        -12.119
  -2.570        -12.117
  -2.568        -12.116
  -2.566        -12.114
  -2.564        -12.113
  -2.561        -12.111
  -2.559        -12.110
  -2.557        -12.108
  -2.555        -12.107
  -2.553        -12.106
  -2.551        -12.104
  -2.548        -12.103
  -2.546        -12.102
  -2.544        -12.100
  -2.542        -12.099
  -2.540        -12.098
  -2.538        -12.097
  -2.535        -12.096
  -2.533        -12.094
  -2.531        -12.093
  -2.529        -12.092
  -2.527        -12.091
  -2.525        -12.090
  -2.522        -12.089
  -2.520        -12.087
  -2.518        -12.086
  -2.516        -12.085
  -2.514        -12.084
  -2.511        -12.083
  -2.509        -12.082
  -2.507        -12.081
  -2.505        -12.080
  -2.503        -12.080
  -2.501        -12.079
  -2.498        -12.078
  -2.496        -12.077
  -2.494        -12.076
  -2.492        -12.075
  -2.490        -12.075
  -2.488        -12.074
  -2.485        -12.073
  -2.483        -12.072
  -2.481        -12.072
  -2.479        -12.071
  -2.477        -12.070
  -2.475        -12.070
  -2.472        -12.069
  -2.470        -12.068
  -2.468        -12.068
  -2.466        -12.068
  -2.464        -12.067
  -2.462        -12.066
  -2.459        -12.066
  -2.457        -12.066
  -2.455        -12.065
  -2.453        -12.065
  -2.451        -12.064
  -2.448        -12.064
  -2.446        -12.064
  -2.444        -12.063
  -2.442        -12.063
  -2.440        -12.063
  -2.438        -12.063
  -2.435        -12.062
  -2.433        -12.062
  -2.431        -12.062
  -2.429        -12.062
  -2.427        -12.062
  -2.425        -12.062
  -2.422        -12.062
  -2.420        -12.062
  -2.418        -12.062
  -2.416        -12.062
  -2.414        -12.062
  -2.412        -12.062
  -2.409        -12.062
  -2.407        -12.062
  -2.405        -12.063
  -2.403        -12.063
  -2.401        -12.063
  -2.398        -12.063
  -2.396        -12.063
  -2.394        -12.064
  -2.392        -12.064
  -2.390        -12.065
  -2.388        -12.065
  -2.386        -12.065
  -2.383        -12.066
  -2.381        -12.066
  -2.379        -12.067
  -2.377        -12.068
  -2.375        -12.068
  -2.372        -12.069
  -2.370        -12.069
  -2.368        -12.070
  -2.366        -12.071
  -2.364        -12.072
  -2.362        -12.072
  -2.359        -12.073
  -2.357        -12.074
  -2.355        -12.075
  -2.353        -12.076
  -2.351        -12.077
  -2.349        -12.078
  -2.346        -12.079
  -2.344        -12.080
  -2.342        -12.081
  -2.340        -12.082
  -2.338        -12.083
  -2.336        -12.084
  -2.333        -12.085
  -2.331        -12.087
  -2.329        -12.088
  -2.327        -12.089
  -2.325        -12.091
  -2.323        -12.092
  -2.320        -12.093
  -2.318        -12.094
  -2.316        -12.096
  -2.314        -12.098
  -2.312        -12.099
  -2.309        -12.101
  -2.307        -12.102
  -2.305        -12.104
  -2.303        -12.106
  -2.301        -12.107
  -2.299        -12.109
  -2.297        -12.111
  -2.294        -12.113
  -2.292        -12.115
  -2.290        -12.117
  -2.288        -12.119
  -2.286        -12.121
  -2.283        -12.123
  -2.281        -12.125
  -2.279        -12.127
  -2.277        -12.129
  -2.275        -12.131
  -2.273        -12.133
  -2.270        -12.136
  -2.268        -12.138
  -2.266        -12.141
  -2.264        -12.143
  -2.262        -12.145
  -2.260        -12.148
  -2.257        -12.150
  -2.255        -12.153
  -2.253        -12.155
  -2.251        -12.158
  -2.249        -12.161
  -2.247        -12.163
  -2.244        -12.166
  -2.242        -12.169
  -2.240        -12.172
  -2.238        -12.175
  -2.236        -12.178
  -2.234        -12.181
  -2.231        -12.184
  -2.229        -12.187
  -2.227        -12.190
  -2.225        -12.193
  -2.223        -12.197
  -2.220        -12.200
  -2.218        -12.203
  -2.216        -12.207
  -2.214        -12.210
  -2.212        -12.214
  -2.210        -12.217
  -2.207        -12.221
  -2.205        -12.224
  -2.203        -12.228
  -2.201        -12.232
  -2.199        -12.235
  -2.197        -12.239
  -2.194        -12.243
  -2.192        -12.247
  -2.190        -12.251
  -2.188        -12.255
  -2.186        -12.259
  -2.184        -12.263
  -2.181        -12.267
  -2.179        -12.272
  -2.177        -12.276
  -2.175        -12.280
  -2.173        -12.285
  -2.171        -12.289
  -2.168        -12.294
  -2.166        -12.298
  -2.164        -12.302
  -2.162        -12.307
  -2.160        -12.312
  -2.158        -12.317
  -2.155        -12.321
  -2.153        -12.326
  -2.151        -12.331
  -2.149        -12.336
  -2.147        -12.341
  -2.145        -12.346
  -2.142        -12.351
  -2.140        -12.356
  -2.138        -12.362
  -2.136        -12.367
  -2.134        -12.372
  -2.131        -12.378
  -2.129        -12.383
  -2.127        -12.389
  -2.125        -12.394
  -2.123        -12.400
  -2.121        -12.406
  -2.118        -12.412
  -2.116        -12.417
  -2.114        -12.423
  -2.112        -12.429
  -2.110        -12.435
  -2.108        -12.441
  -2.105        -12.448
  -2.103        -12.454
  -2.101        -12.460
  -2.099        -12.466
  -2.097        -12.473
  -2.095        -12.479
  -2.092        -12.486
  -2.090        -12.492
  -2.088        -12.499
  -2.086        -12.506
  -2.084        -12.512
  -2.082        -12.519
  -2.079        -12.526
  -2.077        -12.533
  -2.075        -12.540
  -2.073        -12.547
  -2.071        -12.555
  -2.069        -12.562
  -2.066        -12.569
  -2.064        -12.576
  -2.062        -12.584
  -2.060        -12.591
  -2.058        -12.599
  -2.056        -12.607
  -2.053        -12.614
  -2.051        -12.622
  -2.049        -12.630
  -2.047        -12.638
  -2.045        -12.646
  -2.043        -12.654
  -2.040        -12.662
  -2.038        -12.671
  -2.036        -12.679
  -2.034        -12.687
  -2.032        -12.696
  -2.029        -12.704
  -2.027        -12.713
  -2.025        -12.722
  -2.023        -12.730
  -2.021        -12.739
  -2.019        -12.748
  -2.016        -12.757
  -2.014        -12.766
  -2.012        -12.775
  -2.010        -12.785
  -2.008        -12.794
  -2.006        -12.803
  -2.003        -12.813
  -2.001        -12.822
  -1.999        -12.832
  -1.997        -12.841
  -1.995        -12.851
  -1.993        -12.861
  -1.990        -12.871
  -1.988        -12.881
  -1.986        -12.891
  -1.984        -12.901
  -1.982        -12.912
  -1.980        -12.922
  -1.977        -12.932
  -1.975        -12.943
  -1.973        -12.954
  -1.971        -12.964
  -1.969        -12.975
  -1.967        -12.986
  -1.964        -12.997
  -1.962        -13.008
  -1.960        -13.019
  -1.958        -13.030
  -1.956        -13.042
  -1.953        -13.053
  -1.951        -13.064
  -1.949        -13.076
  -1.947        -13.088
  -1.945        -13.099
  -1.943        -13.111
  -1.940        -13.123
  -1.938        -13.135
  -1.936        -13.147
  -1.934        -13.160
  -1.932        -13.172
  -1.930        -13.184
  -1.927        -13.197
  -1.925        -13.209
  -1.923        -13.222
  -1.921        -13.235
  -1.919        -13.248
  -1.917        -13.261
  -1.914        -13.274
  -1.912        -13.287
  -1.910        -13.300
  -1.908        -13.314
  -1.906        -13.327
  -1.904        -13.341
  -1.901        -13.354
  -1.899        -13.368
  -1.897        -13.382
  -1.895        -13.396
  -1.893        -13.410
  -1.891        -13.425
  -1.888        -13.439
  -1.886        -13.453
  -1.884        -13.468
  -1.882        -13.482
  -1.880        -13.497
  -1.877        -13.512
  -1.875        -13.527
  -1.873        -13.542
  -1.871        -13.557
  -1.869        -13.572
  -1.867        -13.588
  -1.864        -13.603
  -1.862        -13.619
  -1.860        -13.634
  -1.858        -13.650
  -1.856        -13.666
  -1.853        -13.682
  -1.851        -13.698
  -1.849        -13.714
  -1.847        -13.731
  -1.845        -13.747
  -1.843        -13.764
  -1.841        -13.780
  -1.838        -13.797
  -1.836        -13.814
  -1.834        -13.831
  -1.832        -13.848
  -1.830        -13.866
  -1.828        -13.883
  -1.825        -13.901
  -1.823        -13.918
  -1.821        -13.936
  -1.819        -13.954
  -1.817        -13.972
  -1.815        -13.990
  -1.812        -14.008
  -1.810        -14.027
  -1.808        -14.045
  -1.806        -14.064
  -1.804        -14.083
  -1.801        -14.102
  -1.799        -14.121
  -1.797        -14.140
  -1.795        -14.159
  -1.793        -14.178
  -1.791        -14.198
  -1.788        -14.218
  -1.786        -14.237
  -1.784        -14.258
  -1.782        -14.278
  -1.780        -14.298
  -1.777        -14.318
  -1.775        -14.339
  -1.773        -14.359
  -1.771        -14.380
  -1.769        -14.401
  -1.767        -14.422
  -1.764        -14.443
  -1.763        -14.464
  -1.760        -14.486
  -1.758        -14.507
  -1.756        -14.529
  -1.754        -14.551
  -1.752        -14.573
  -1.749        -14.595
  -1.747        -14.617
  -1.745        -14.640
  -1.743        -14.662
  -1.741        -14.685
  -1.739        -14.707
  -1.736        -14.731
  -1.734        -14.754
  -1.732        -14.777
  -1.730        -14.801
  -1.728        -14.824
  -1.726        -14.848
  -1.723        -14.872
  -1.721        -14.896
  -1.719        -14.920
  -1.717        -14.944
  -1.715        -14.969
  -1.713        -14.994
  -1.710        -15.019
  -1.708        -15.043
  -1.706        -15.069
  -1.704        -15.094
  -1.702        -15.119
  -1.699        -15.145
  -1.697        -15.171
  -1.695        -15.197
  -1.693        -15.223
  -1.691        -15.249
  -1.689        -15.276
  -1.686        -15.302
  -1.684        -15.329
  -1.682        -15.356
  -1.680        -15.383
  -1.678        -15.410
  -1.675        -15.438
  -1.673        -15.465
  -1.671        -15.493
  -1.669        -15.521
  -1.667        -15.549
  -1.665        -15.577
  -1.663        -15.606
  -1.660        -15.634
  -1.658        -15.663
  -1.656        -15.692
  -1.654        -15.721
  -1.652        -15.751
  -1.650        -15.780
  -1.647        -15.810
  -1.645        -15.840
  -1.643        -15.870
  -1.641        -15.900
  -1.639        -15.931
  -1.637        -15.961
  -1.634        -15.992
  -1.632        -16.023
  -1.630        -16.054
  -1.628        -16.085
  -1.626        -16.117
  -1.623        -16.149
  -1.621        -16.181
  -1.619        -16.213
  -1.617        -16.245
  -1.615        -16.278
  -1.613        -16.310
  -1.611        -16.343
  -1.608        -16.376
  -1.606        -16.409
  -1.604        -16.443
  -1.602        -16.476
  -1.600        -16.511
  -1.597        -16.545
  -1.595        -16.579
  -1.593        -16.613
  -1.591        -16.648
  -1.589        -16.683
  -1.587        -16.718
  -1.584        -16.753
  -1.582        -16.789
  -1.580        -16.824
  -1.578        -16.860
  -1.576        -16.896
  -1.573        -16.932
  -1.571        -16.968
  -1.569        -17.005
  -1.567        -17.042
  -1.565        -17.079
  -1.563        -17.116
  -1.561        -17.153
  -1.558        -17.191
  -1.556        -17.229
  -1.554        -17.267
  -1.552        -17.305
  -1.550        -17.343
  -1.547        -17.381
  -1.545        -17.420
  -1.543        -17.459
  -1.541        -17.498
  -1.539        -17.537
  -1.537        -17.576
  -1.534        -17.615
  -1.532        -17.655
  -1.530        -17.694
  -1.528        -17.734
  -1.526        -17.774
  -1.524        -17.813
  -1.522        -17.853
  -1.519        -17.893
  -1.517        -17.933
  -1.515        -17.973
  -1.513        -18.013
  -1.511        -18.053
  -1.508        -18.092
  -1.506        -18.132
  -1.504        -18.172
  -1.502        -18.211
  -1.500        -18.250
  -1.498        -18.289
  -1.495        -18.327
  -1.493        -18.366
  -1.491        -18.403
  -1.489        -18.441
  -1.487        -18.477
  -1.484        -18.514
  -1.482        -18.549
  -1.480        -18.584
  -1.478        -18.618
  -1.476        -18.651
  -1.474        -18.684
  -1.472        -18.715
  -1.469        -18.746
  -1.467        -18.775
  -1.465        -18.803
  -1.463        -18.830
  -1.461        -18.856
  -1.458        -18.881
  -1.456        -18.904
  -1.454        -18.926
  -1.452        -18.947
  -1.450        -18.967
  -1.448        -18.985
  -1.445        -19.003
  -1.443        -19.019
  -1.441        -19.033
  -1.439        -19.047
  -1.437        -19.060
  -1.435        -19.072
  -1.432        -19.083
  -1.430        -19.093
  -1.428        -19.102
  -1.426        -19.110
  -1.424        -19.118
  -1.422        -19.125
  -1.419        -19.131
  -1.417        -19.137
  -1.415        -19.142
  -1.413        -19.147
  -1.411        -19.151
  -1.409        -19.155
  -1.406        -19.159
  -1.404        -19.162
  -1.402        -19.165
  -1.400        -19.168
  -1.398        -19.171
  -1.396        -19.173
  -1.393        -19.175
  -1.391        -19.177
  -1.389        -19.179
  -1.387        -19.181
  -1.385        -19.182
  -1.383        -19.183
  -1.380        -19.185
  -1.378        -19.186
  -1.376        -19.188
  -1.374        -19.189
  -1.372        -19.190
  -1.370        -19.191
  -1.367        -19.192
  -1.365        -19.193
  -1.363        -19.194
  -1.361        -19.195
  -1.359        -19.196
  -1.356        -19.196
  -1.354        -19.197
  -1.352        -19.198
  -1.350        -19.199
  -1.348        -19.200
  -1.346        -19.201
  -1.343        -19.201
  -1.341        -19.202
  -1.339        -19.203
  -1.337        -19.204
  -1.335        -19.204
  -1.333        -19.205
  -1.330        -19.206
  -1.328        -19.207
  -1.326        -19.207
  -1.324        -19.208
  -1.322        -19.209
  -1.320        -19.209
  -1.317        -19.210
  -1.315        -19.211
  -1.313        -19.211
  -1.311        -19.212
  -1.309        -19.213
  -1.307        -19.213
  -1.304        -19.214
  -1.302        -19.215
  -1.300        -19.215
  -1.298        -19.216
  -1.296        -19.217
  -1.293        -19.218
  -1.291        -19.218
  -1.289        -19.219
  -1.287        -19.220
  -1.285        -19.220
  -1.283        -19.221
  -1.280        -19.221
  -1.278        -19.222
  -1.276        -19.223
  -1.274        -19.223
  -1.272        -19.224
  -1.270        -19.225
  -1.267        -19.225
  -1.265        -19.226
  -1.263        -19.227
  -1.261        -19.227
  -1.259        -19.228
  -1.257        -19.228
  -1.254        -19.229
  -1.252        -19.230
  -1.250        -19.230
  -1.248        -19.231
  -1.246        -19.231
  -1.243        -19.232
  -1.241        -19.233
  -1.239        -19.233
  -1.237        -19.234
  -1.235        -19.235
  -1.233        -19.235
  -1.231        -19.236
  -1.228        -19.236
  -1.226        -19.237
  -1.224        -19.238
  -1.222        -19.238
  -1.220        -19.239
  -1.217        -19.239
  -1.215        -19.240
  -1.213        -19.241
  -1.211        -19.241
  -1.209        -19.242
  -1.207        -19.242
  -1.204        -19.243
  -1.202        -19.244
  -1.200        -19.244
  -1.198        -19.245
  -1.196        -19.245
  -1.194        -19.246
  -1.191        -19.247
  -1.189        -19.247
  -1.187        -19.248
  -1.185        -19.249
  -1.183        -19.249
  -1.181        -19.250
  -1.178        -19.250
  -1.176        -19.251
  -1.174        -19.252
  -1.172        -19.252
  -1.170        -19.253
  -1.168        -19.254
  -1.165        -19.254
  -1.163        -19.255
  -1.161        -19.256
  -1.159        -19.256
  -1.157        -19.257
  -1.155        -19.258
  -1.152        -19.258
  -1.150        -19.259
  -1.148        -19.259
  -1.146        -19.260
  -1.144        -19.261
  -1.142        -19.262
  -1.139        -19.262
  -1.137        -19.263
  -1.135        -19.264
  -1.133        -19.265
  -1.131        -19.265
  -1.129        -19.266
  -1.126        -19.267
  -1.124        -19.268
  -1.122        -19.268
  -1.120        -19.269
  -1.118        -19.270
  -1.115        -19.270
  -1.113        -19.271
  -1.111        -19.272
  -1.109        -19.273
  -1.107        -19.273
  -1.105        -19.274
  -1.102        -19.275
  -1.100        -19.276
  -1.098        -19.277
  -1.096        -19.278
  -1.094        -19.278
  -1.092        -19.279
  -1.089        -19.280
  -1.087        -19.281
  -1.085        -19.282
  -1.083        -19.283
  -1.081        -19.284
  -1.079        -19.285
  -1.076        -19.286
  -1.074        -19.287
  -1.072        -19.287
  -1.070        -19.289
  -1.068        -19.289
  -1.066        -19.291
  -1.063        -19.292
  -1.061        -19.293
  -1.059        -19.294
  -1.057        -19.295
  -1.055        -19.296
  -1.052        -19.297
  -1.050        -19.298
  -1.048        -19.299
  -1.046        -19.300
  -1.044        -19.301
  -1.042        -19.303
  -1.039        -19.304
  -1.037        -19.305
  -1.035        -19.306
  -1.033        -19.308
  -1.031        -19.309
  -1.029        -19.310
  -1.026        -19.312
  -1.024        -19.313
  -1.022        -19.315
  -1.020        -19.316
  -1.018        -19.318
  -1.016        -19.319
  -1.013        -19.321
  -1.011        -19.322
  -1.009        -19.323
  -1.007        -19.325
  -1.005        -19.327
  -1.003        -19.328
  -1.000        -19.330
  -0.998        -19.331
  -0.996        -19.333
  -0.994        -19.334
  -0.992        -19.336
  -0.990        -19.337
  -0.987        -19.339
  -0.985        -19.341
  -0.983        -19.342
  -0.981        -19.343
  -0.979        -19.345
  -0.977        -19.347
  -0.974        -19.348
  -0.972        -19.349
  -0.970        -19.351
  -0.968        -19.352
  -0.966        -19.354
  -0.963        -19.355
  -0.961        -19.356
  -0.959        -19.358
  -0.957        -19.359
  -0.955        -19.360
  -0.953        -19.362
  -0.950        -19.363
  -0.948        -19.364
  -0.946        -19.365
  -0.944        -19.366
  -0.942        -19.367
  -0.940        -19.369
  -0.937        -19.370
  -0.935        -19.371
  -0.933        -19.372
  -0.931        -19.373
  -0.929        -19.374
  -0.927        -19.375
  -0.924        -19.376
  -0.922        -19.377
  -0.920        -19.378
  -0.918        -19.379
  -0.916        -19.380
  -0.914        -19.381
  -0.911        -19.382
  -0.909        -19.383
  -0.907        -19.384
  -0.905        -19.385
  -0.903        -19.385
  -0.900        -19.386
  -0.898        -19.387
  -0.896        -19.388
  -0.894        -19.388
  -0.892        -19.389
  -0.890        -19.390
  -0.887        -19.391
  -0.885        -19.392
  -0.883        -19.392
  -0.881        -19.393
  -0.879        -19.393
  -0.877        -19.394
  -0.874        -19.394
  -0.872        -19.395
  -0.870        -19.396
  -0.868        -19.397
  -0.866        -19.397
  -0.864        -19.397
  -0.862        -19.398
  -0.859        -19.398
  -0.857        -19.399
  -0.855        -19.399
  -0.853        -19.400
  -0.851        -19.400
  -0.848        -19.401
  -0.846        -19.401
  -0.844        -19.401
  -0.842        -19.402
  -0.840        -19.402
  -0.838        -19.402
  -0.835        -19.402
  -0.833        -19.402
  -0.831        -19.403
  -0.829        -19.403
  -0.827        -19.403
  -0.825        -19.404
  -0.822        -19.404
  -0.820        -19.404
  -0.818        -19.404
  -0.816        -19.403
  -0.814        -19.403
  -0.812        -19.403
  -0.809        -19.404
  -0.807        -19.403
  -0.805        -19.403
  -0.803        -19.403
  -0.801        -19.403
  -0.799        -19.403
  -0.796        -19.403
  -0.794        -19.402
  -0.792        -19.402
  -0.790        -19.401
  -0.788        -19.401
  -0.785        -19.400
  -0.783        -19.400
  -0.781        -19.400
  -0.779        -19.399
  -0.777        -19.398
  -0.774        -19.398
  -0.772        -19.397
  -0.770        -19.396
  -0.768        -19.396
  -0.766        -19.395
  -0.764        -19.394
  -0.762        -19.394
  -0.759        -19.393
  -0.757        -19.392
  -0.755        -19.391
  -0.753        -19.390
  -0.751        -19.389
  -0.748        -19.389
  -0.746        -19.387
  -0.744        -19.386
  -0.742        -19.385
  -0.740        -19.384
  -0.738        -19.383
  -0.736        -19.382
  -0.733        -19.381
  -0.731        -19.380
  -0.729        -19.379
  -0.727        -19.378
  -0.725        -19.376
  -0.723        -19.375
  -0.720        -19.374
  -0.718        -19.373
  -0.716        -19.371
  -0.714        -19.370
  -0.712        -19.369
  -0.709        -19.367
  -0.707        -19.366
  -0.705        -19.364
  -0.703        -19.363
  -0.701        -19.362
  -0.699        -19.360
  -0.697        -19.358
  -0.694        -19.357
  -0.692        -19.355
  -0.690        -19.354
  -0.688        -19.352
  -0.685        -19.350
  -0.683        -19.349
  -0.681        -19.347
  -0.679        -19.346
  -0.677        -19.344
  -0.675        -19.342
  -0.673        -19.340
  -0.670        -19.338
  -0.668        -19.336
  -0.666        -19.335
  -0.664        -19.333
  -0.662        -19.331
  -0.659        -19.329
  -0.657        -19.327
  -0.655        -19.325
  -0.653        -19.323
  -0.651        -19.321
  -0.649        -19.319
  -0.647        -19.317
  -0.644        -19.315
  -0.642        -19.313
  -0.640        -19.311
  -0.638        -19.309
  -0.636        -19.307
  -0.633        -19.304
  -0.631        -19.302
  -0.629        -19.300
  -0.627        -19.298
  -0.625        -19.295
  -0.623        -19.293
  -0.621        -19.291
  -0.618        -19.289
  -0.616        -19.287
  -0.614        -19.284
  -0.612        -19.282
  -0.610        -19.280
  -0.608        -19.278
  -0.605        -19.275
  -0.603        -19.273
  -0.601        -19.271
  -0.599        -19.268
  -0.596        -19.266
  -0.594        -19.264
  -0.592        -19.262
  -0.590        -19.259
  -0.588        -19.257
  -0.586        -19.255
  -0.584        -19.252
  -0.581        -19.250
  -0.579        -19.248
  -0.577        -19.245
  -0.575        -19.243
  -0.573        -19.241
  -0.571        -19.238
  -0.568        -19.236
  -0.566        -19.234
  -0.564        -19.232
  -0.562        -19.230
  -0.560        -19.227
  -0.557        -19.225
  -0.555        -19.223
  -0.553        -19.221
  -0.551        -19.218
  -0.549        -19.216
  -0.547        -19.214
  -0.544        -19.211
  -0.542        -19.209
  -0.540        -19.207
  -0.538        -19.204
  -0.536        -19.202
  -0.534        -19.199
  -0.531        -19.197
  -0.529        -19.195
  -0.527        -19.192
  -0.525        -19.189
  -0.523        -19.187
  -0.521        -19.184
  -0.518        -19.181
  -0.516        -19.179
  -0.514        -19.176
  -0.512        -19.173
  -0.510        -19.171
  -0.507        -19.168
  -0.505        -19.165
  -0.503        -19.162
  -0.501        -19.160
  -0.499        -19.157
  -0.497        -19.154
  -0.495        -19.151
  -0.492        -19.149
  -0.490        -19.146
  -0.488        -19.143
  -0.486        -19.140
  -0.484        -19.138
  -0.482        -19.135
  -0.479        -19.132
  -0.477        -19.129
  -0.475        -19.126
  -0.473        -19.123
  -0.471        -19.121
  -0.468        -19.118
  -0.466        -19.115
  -0.464        -19.112
  -0.462        -19.109
  -0.460        -19.106
  -0.458        -19.104
  -0.455        -19.101
  -0.453        -19.098
  -0.451        -19.095
  -0.449        -19.092
  -0.447        -19.089
  -0.445        -19.086
  -0.442        -19.083
  -0.440        -19.081
  -0.438        -19.078
  -0.436        -19.075
  -0.434        -19.072
  -0.432        -19.069
  -0.429        -19.066
  -0.427        -19.063
  -0.425        -19.060
  -0.423        -19.057
  -0.421        -19.054
  -0.419        -19.051
  -0.416        -19.048
  -0.414        -19.045
  -0.412        -19.043
  -0.410        -19.039
  -0.408        -19.036
  -0.405        -19.033
  -0.403        -19.031
  -0.401        -19.028
  -0.399        -19.024
  -0.397        -19.021
  -0.395        -19.018
  -0.392        -19.015
  -0.390        -19.012
  -0.388        -19.010
  -0.386        -19.006
  -0.384        -19.003
  -0.382        -19.000
  -0.379        -18.997
  -0.377        -18.994
  -0.375        -18.992
  -0.373        -18.988
  -0.371        -18.986
  -0.369        -18.983
  -0.366        -18.979
  -0.364        -18.977
  -0.362        -18.974
  -0.360        -18.971
  -0.358        -18.968
  -0.356        -18.965
  -0.353        -18.963
  -0.351        -18.960
  -0.349        -18.957
  -0.347        -18.954
  -0.345        -18.951
  -0.343        -18.949
  -0.340        -18.946
  -0.338        -18.943
  -0.336        -18.941
  -0.334        -18.938
  -0.332        -18.935
  -0.330        -18.933
  -0.327        -18.930
  -0.325        -18.927
  -0.323        -18.925
  -0.321        -18.922
  -0.319        -18.920
  -0.316        -18.918
  -0.314        -18.915
  -0.312        -18.913
  -0.310        -18.911
  -0.308        -18.908
  -0.306        -18.906
  -0.303        -18.904
  -0.301        -18.902
  -0.299        -18.900
  -0.297        -18.898
  -0.295        -18.896
  -0.293        -18.894
  -0.290        -18.893
  -0.288        -18.891
  -0.286        -18.889
  -0.284        -18.887
  -0.282        -18.886
  -0.280        -18.884
  -0.277        -18.883
  -0.275        -18.881
  -0.273        -18.880
  -0.271        -18.878
  -0.269        -18.877
  -0.267        -18.876
  -0.264        -18.875
  -0.262        -18.873
  -0.260        -18.872
  -0.258        -18.870
  -0.256        -18.869
  -0.253        -18.868
  -0.251        -18.867
  -0.249        -18.866
  -0.247        -18.865
  -0.245        -18.864
  -0.243        -18.862
  -0.241        -18.861
  -0.238        -18.860
  -0.236        -18.859
  -0.234        -18.859
  -0.232        -18.858
  -0.230        -18.857
  -0.227        -18.856
  -0.225        -18.855
  -0.223        -18.854
  -0.221        -18.853
  -0.219        -18.852
  -0.217        -18.852
  -0.214        -18.851
  -0.212        -18.850
  -0.210        -18.850
  -0.208        -18.849
  -0.206        -18.848
  -0.204        -18.847
  -0.201        -18.847
  -0.199        -18.846
  -0.197        -18.846
  -0.195        -18.845
  -0.193        -18.845
  -0.191        -18.845
  -0.188        -18.844
  -0.186        -18.844
  -0.184        -18.843
  -0.182        -18.843
  -0.180        -18.843
  -0.178        -18.842
  -0.175        -18.843
  -0.173        -18.842
  -0.171        -18.843
  -0.169        -18.843
  -0.167        -18.843
  -0.164        -18.843
  -0.162        -18.843
  -0.160        -18.843
  -0.158        -18.843
  -0.156        -18.843
  -0.154        -18.843
  -0.151        -18.844
  -0.149        -18.844
  -0.147        -18.844
  -0.145        -18.845
  -0.143        -18.845
  -0.141        -18.845
  -0.138        -18.846
  -0.136        -18.846
  -0.134        -18.846
  -0.132        -18.847
  -0.130        -18.847
  -0.128        -18.847
  -0.125        -18.848
  -0.123        -18.848
  -0.121        -18.849
  -0.119        -18.849
  -0.117        -18.849
  -0.115        -18.850
  -0.112        -18.850
  -0.110        -18.850
  -0.108        -18.850
  -0.106        -18.851
  -0.104        -18.851
  -0.102        -18.851
  -0.099        -18.851
  -0.097        -18.852
  -0.095        -18.852
  -0.093        -18.852
  -0.091        -18.852
  -0.089        -18.852
  -0.086        -18.852
  -0.084        -18.852
  -0.082        -18.852
  -0.080        -18.852
  -0.078        -18.852
  -0.075        -18.853
  -0.073        -18.853
  -0.071        -18.853
  -0.069        -18.853
  -0.067        -18.853
  -0.065        -18.853
  -0.063        -18.853
  -0.060        -18.853
  -0.058        -18.853
  -0.056        -18.853
  -0.054        -18.854
  -0.052        -18.854
  -0.049        -18.854
  -0.047        -18.854
  -0.045        -18.854
  -0.043        -18.854
  -0.041        -18.854
  -0.039        -18.854
  -0.036        -18.855
  -0.034        -18.855
  -0.032        -18.855
  -0.030        -18.855
  -0.028        -18.855
  -0.026        -18.855
  -0.023        -18.855
  -0.021        -18.856
  -0.019        -18.856
  -0.017        -18.856
  -0.015        -18.856
  -0.013        -18.856
  -0.010        -18.857
  -0.008        -18.857
  -0.006        -18.857
  -0.004        -18.857
  -0.002        -18.857
   0.000        -18.857
   0.003        -18.857
   0.005        -18.857
   0.007        -18.857
   0.009        -18.858
   0.011        -18.858
   0.013        -18.858
   0.016        -18.858
   0.018        -18.858
   0.020        -18.858
   0.022        -18.858
   0.024        -18.859
   0.027        -18.859
   0.029        -18.859
   0.031        -18.859
   0.033        -18.859
   0.035        -18.859
   0.037        -18.859
   0.040        -18.860
   0.042        -18.860
   0.044        -18.860
   0.046        -18.860
   0.048        -18.860
   0.050        -18.861
   0.053        -18.861
   0.055        -18.861
   0.057        -18.861
   0.059        -18.861
   0.061        -18.861
   0.063        -18.862
   0.066        -18.862
   0.068        -18.862
   0.070        -18.862
   0.072        -18.862
   0.074        -18.862
   0.076        -18.862
   0.079        -18.862
   0.081        -18.862
   0.083        -18.862
   0.085        -18.862
   0.087        -18.862
   0.089        -18.862
   0.092        -18.862
   0.094        -18.862
   0.096        -18.862
   0.098        -18.862
   0.100        -18.862
   0.103        -18.862
   0.105        -18.862
   0.107        -18.862
   0.109        -18.862
   0.111        -18.862
   0.113        -18.862
   0.116        -18.862
   0.118        -18.862
   0.120        -18.862
   0.122        -18.862
   0.124        -18.862
   0.126        -18.862
   0.128        -18.862
   0.131        -18.862
   0.133        -18.862
   0.135        -18.862
   0.137        -18.862
   0.139        -18.862
   0.142        -18.862
   0.144        -18.862
   0.146        -18.862
   0.148        -18.862
   0.150        -18.862
   0.153        -18.862
   0.155        -18.862
   0.157        -18.862
   0.159        -18.861
   0.161        -18.861
   0.163        -18.861
   0.165        -18.861
   0.168        -18.861
   0.170        -18.860
   0.172        -18.860
   0.174        -18.860
   0.176        -18.860
   0.178        -18.860
   0.181        -18.859
   0.183        -18.859
   0.185        -18.859
   0.187        -18.859
   0.189        -18.859
   0.192        -18.858
   0.194        -18.858
   0.196        -18.858
   0.198        -18.857
   0.200        -18.857
   0.202        -18.857
   0.205        -18.857
   0.207        -18.856
   0.209        -18.856
   0.211        -18.856
   0.213        -18.855
   0.215        -18.855
   0.218        -18.855
   0.220        -18.855
   0.222        -18.854
   0.224        -18.854
   0.226        -18.854
   0.229        -18.854
   0.231        -18.853
   0.233        -18.853
   0.235        -18.853
   0.237        -18.853
   0.239        -18.853
   0.241        -18.853
   0.244        -18.853
   0.246        -18.853
   0.248        -18.854
   0.250        -18.854
   0.252        -18.854
   0.254        -18.854
   0.257        -18.855
   0.259        -18.855
   0.261        -18.856
   0.263        -18.856
   0.265        -18.857
   0.267        -18.858
   0.270        -18.858
   0.272        -18.860
   0.274        -18.860
   0.276        -18.861
   0.278        -18.862
   0.281        -18.863
   0.283        -18.864
   0.285        -18.865
   0.287        -18.866
   0.289        -18.867
   0.291        -18.868
   0.293        -18.869
   0.296        -18.870
   0.298        -18.871
   0.300        -18.872
   0.302        -18.874
   0.305        -18.875
   0.307        -18.876
   0.309        -18.877
   0.311        -18.879
   0.313        -18.880
   0.315        -18.881
   0.318        -18.882
   0.320        -18.884
   0.322        -18.885
   0.324        -18.886
   0.326        -18.888
   0.328        -18.889
   0.330        -18.890
   0.333        -18.892
   0.335        -18.893
   0.337        -18.894
   0.339        -18.896
   0.341        -18.897
   0.344        -18.899
   0.346        -18.900
   0.348        -18.902
   0.350        -18.903
   0.352        -18.905
   0.354        -18.906
   0.356        -18.908
   0.359        -18.909
   0.361        -18.911
   0.363        -18.912
   0.365        -18.914
   0.367        -18.915
   0.369        -18.917
   0.372        -18.918
   0.374        -18.920
   0.376        -18.921
   0.378        -18.923
   0.380        -18.924
   0.383        -18.926
   0.385        -18.928
   0.387        -18.929
   0.389        -18.931
   0.391        -18.933
   0.393        -18.935
   0.396        -18.937
   0.398        -18.939
   0.400        -18.941
   0.402        -18.943
   0.404        -18.944
   0.406        -18.947
   0.409        -18.949
   0.411        -18.951
   0.413        -18.954
   0.415        -18.956
   0.417        -18.958
   0.420        -18.961
   0.422        -18.963
   0.424        -18.965
   0.426        -18.968
   0.428        -18.971
   0.430        -18.973
   0.432        -18.976
   0.435        -18.978
   0.437        -18.981
   0.439        -18.984
   0.441        -18.986
   0.443        -18.989
   0.446        -18.992
   0.448        -18.994
   0.450        -18.997
   0.452        -19.001
   0.454        -19.004
   0.456        -19.007
   0.459        -19.010
   0.461        -19.013
   0.463        -19.016
   0.465        -19.020
   0.467        -19.023
   0.469        -19.026
   0.472        -19.029
   0.474        -19.032
   0.476        -19.035
   0.478        -19.038
   0.480        -19.041
   0.482        -19.044
   0.485        -19.047
   0.487        -19.050
   0.489        -19.052
   0.491        -19.053
   0.493        -19.054
   0.495        -19.055
   0.498        -19.056
   0.500        -19.057
   0.502        -19.058
   0.504        -19.059
   0.506        -19.060
   0.510        -19.061
   0.512        -19.061
   0.513        -19.061
   0.515        -19.060
   0.517        -19.060
   0.519        -19.059
   0.522        -19.059
   0.524        -19.058
   0.526        -19.058
   0.528        -19.057
   0.530        -19.057
   0.532        -19.056
   0.535        -19.056
   0.537        -19.055
   0.539        -19.054
   0.541        -19.054
   0.543        -19.053
   0.545        -19.053
   0.548        -19.052
   0.550        -19.051
   0.552        -19.051
   0.554        -19.050
   0.556        -19.049
   0.558        -19.049
   0.561        -19.048
   0.563        -19.047
   0.565        -19.047
   0.567        -19.046
   0.569        -19.045
   0.572        -19.044
   0.574        -19.044
   0.576        -19.043
   0.578        -19.042
   0.580        -19.042
   0.582        -19.041
   0.585        -19.040
   0.587        -19.040
   0.589        -19.039
   0.591        -19.038
   0.593        -19.037
   0.595        -19.037
   0.598        -19.036
   0.600        -19.035
   0.602        -19.034
   0.604        -19.034
   0.606        -19.033
   0.608        -19.032
   0.611        -19.032
   0.613        -19.031
   0.615        -19.030
   0.617        -19.029
   0.619        -19.029
   0.621        -19.028
   0.624        -19.027
   0.626        -19.027
   0.628        -19.026
   0.630        -19.025
   0.632        -19.024
   0.634        -19.024
   0.637        -19.023
   0.639        -19.022
   0.641        -19.021
   0.643        -19.021
   0.645        -19.020
   0.647        -19.019
   0.650        -19.018
   0.652        -19.017
   0.654        -19.016
   0.656        -19.016
   0.658        -19.015
   0.660        -19.014
   0.663        -19.013
   0.665        -19.012
   0.667        -19.011
   0.669        -19.010
   0.671        -19.009
   0.673        -19.008
   0.676        -19.008
   0.678        -19.007
   0.680        -19.006
   0.682        -19.005
   0.684        -19.004
   0.687        -19.003
   0.689        -19.002
   0.691        -19.001
   0.693        -19.000
   0.695        -18.999
   0.697        -18.998
   0.700        -18.997
   0.702        -18.997
   0.704        -18.996
   0.706        -18.995
   0.708        -18.994
   0.710        -18.993
   0.713        -18.992
   0.715        -18.991
   0.717        -18.991
   0.719        -18.990
   0.721        -18.990
   0.723        -18.990
   0.726        -18.989
   0.728        -18.989
   0.730        -18.989
   0.732        -18.988
   0.734        -18.988
   0.736        -18.988
   0.739        -18.988
   0.741        -18.987
   0.743        -18.987
   0.745        -18.987
   0.747        -18.987
   0.750        -18.987
   0.752        -18.987
   0.754        -18.987
   0.756        -18.987
   0.758        -18.987
   0.760        -18.986
   0.762        -18.986
   0.765        -18.985
   0.767        -18.985
   0.769        -18.985
   0.771        -18.984
   0.773        -18.984
   0.776        -18.984
   0.778        -18.983
   0.780        -18.983
   0.782        -18.982
   0.784        -18.982
   0.786        -18.982
   0.789        -18.981
   0.791        -18.981
   0.793        -18.981
   0.795        -18.980
   0.797        -18.980
   0.799        -18.980
   0.802        -18.979
   0.804        -18.979
   0.806        -18.979
   0.808        -18.979
   0.810        -18.979
   0.812        -18.979
   0.815        -18.979
   0.817        -18.978
   0.819        -18.978
   0.821        -18.978
   0.823        -18.978
   0.825        -18.979
   0.828        -18.979
   0.830        -18.979
   0.832        -18.980
   0.834        -18.980
   0.836        -18.980
   0.838        -18.980
   0.841        -18.981
   0.843        -18.981
   0.845        -18.982
   0.847        -18.984
   0.849        -18.985
   0.852        -18.986
   0.854        -18.988
   0.856        -18.989
   0.858        -18.991
   0.860        -18.992
   0.862        -18.994
   0.865        -18.995
   0.867        -18.998
   0.869        -19.000
   0.871        -19.003
   0.873        -19.005
   0.875        -19.007
   0.878        -19.010
   0.880        -19.012
   0.882        -19.015
   0.884        -19.017
   0.886        -19.020
   0.888        -19.024
   0.891        -19.027
   0.893        -19.030
   0.895        -19.033
   0.897        -19.037
   0.899        -19.040
   0.901        -19.043
   0.904        -19.046
   0.906        -19.050
   0.908        -19.054
   0.910        -19.058
   0.912        -19.062
   0.915        -19.066
   0.917        -19.070
   0.919        -19.073
   0.921        -19.077
   0.923        -19.081
   0.925        -19.085
   0.928        -19.090
   0.930        -19.094
   0.932        -19.099
   0.934        -19.104
   0.936        -19.109
   0.938        -19.114
   0.941        -19.118
   0.943        -19.123
   0.945        -19.128
   0.947        -19.133
   0.949        -19.140
   0.951        -19.146
   0.954        -19.153
   0.956        -19.159
   0.958        -19.166
   0.960        -19.173
   0.962        -19.179
   0.964        -19.186
   0.967        -19.193
   0.969        -19.198
   0.971        -19.203
   0.973        -19.209
   0.975        -19.214
   0.977        -19.219
   0.980        -19.224
   0.982        -19.229
   0.984        -19.234
   0.986        -19.239
   0.988        -19.249
   0.990        -19.259
   0.993        -19.265
   0.995        -19.271
   0.997        -19.277
   0.999        -19.283
   1.001        -19.289
   1.004        -19.294
   1.006        -19.301
   1.008        -19.306
   1.010        -19.314
   1.012        -19.325
   1.014        -19.337
   1.017        -19.348
   1.019        -19.360
   1.021        -19.372
   1.023        -19.383
   1.025        -19.395
   1.027        -19.407
   1.030        -19.418
   1.032        -19.434
   1.034        -19.451
   1.036        -19.468
   1.038        -19.485
   1.040        -19.502
   1.043        -19.519
   1.045        -19.536
   1.047        -19.553
   1.049        -19.570
   1.051        -19.589
   1.053        -19.616
   1.056        -19.644
   1.058        -19.673
   1.060        -19.701
   1.062        -19.729
   1.064        -19.757
   1.066        -19.785
   1.069        -19.814
   1.071        -19.842
   1.073        -19.890
   1.075        -19.957
   1.077        -20.025
   1.079        -20.092
   1.082        -20.160
   1.084        -20.227
   1.086        -20.295
   1.088        -20.362
   1.090        -20.429
   1.093        -20.500
   1.095        -20.611
   1.097        -20.733
   1.099        -20.855
   1.101        -20.977
   1.103        -21.098
   1.106        -21.220
   1.108        -21.342
   1.110        -21.464
   1.112        -21.601
   1.114        -21.674
   1.117        -21.677
   1.119        -21.680
   1.121        -21.683
   1.123        -21.686
   1.125        -21.689
   1.127        -21.692
   1.129        -21.695
   1.131        -21.698
   1.134        -21.702
   1.136        -21.705
   1.138        -21.708
   1.140        -21.712
   1.143        -21.715
   1.145        -21.718
   1.147        -21.721
   1.149        -21.724
   1.151        -21.727
   1.153        -21.731
   1.155        -21.733
   1.158        -21.735
   1.160        -21.737
   1.162        -21.739
   1.164        -21.741
   1.166        -21.743
   1.169        -21.745
   1.171        -21.748
   1.173        -21.749
   1.175        -21.752
   1.177        -21.754
   1.180        -21.757
   1.181        -21.759
   1.184        -21.762
   1.186        -21.764
   1.188        -21.767
   1.190        -21.769
   1.192        -21.772
   1.195        -21.774
   1.197        -21.777
   1.199        -21.779
   1.201        -21.781
   1.203        -21.783
   1.205        -21.785
   1.208        -21.788
   1.210        -21.790
   1.212        -21.792
   1.214        -21.794
   1.216        -21.797
   1.218        -21.799
   1.220        -21.802
   1.223        -21.804
   1.225        -21.807
   1.227        -21.809
   1.229        -21.811
   1.232        -21.814
   1.234        -21.816
   1.236        -21.819
   1.238        -21.821
   1.240        -21.822
   1.242        -21.824
   1.245        -21.825
   1.247        -21.826
   1.249        -21.828
   1.251        -21.829
   1.253        -21.831
   1.255        -21.832
   1.258        -21.834
   1.260        -21.835
   1.262        -21.837
   1.264        -21.838
   1.266        -21.840
   1.268        -21.841
   1.270        -21.843
   1.273        -21.844
   1.275        -21.846
   1.277        -21.848
   1.279        -21.849
   1.281        -21.851
   1.284        -21.854
   1.286        -21.856
   1.288        -21.858
   1.290        -21.860
   1.292        -21.862
   1.294        -21.864
   1.297        -21.866
   1.299        -21.868
   1.301        -21.871
   1.303        -21.873
   1.305        -21.876
   1.307        -21.879
   1.310        -21.881
   1.312        -21.884
   1.314        -21.887
   1.316        -21.890
   1.318        -21.892
   1.320        -21.896
   1.323        -21.900
   1.325        -21.905
   1.327        -21.910
   1.329        -21.915
   1.331        -21.920
   1.334        -21.925
   1.336        -21.930
   1.338        -21.935
   1.340        -21.940
   1.342        -21.945
   1.344        -21.951
   1.346        -21.956
   1.349        -21.962
   1.351        -21.968
   1.353        -21.973
   1.355        -21.979
   1.357        -21.984
   1.359        -21.990
   1.362        -21.995
   1.364        -22.002
   1.366        -22.008
   1.368        -22.014
   1.370        -22.020
   1.373        -22.026
   1.375        -22.032
   1.377        -22.038
   1.379        -22.045
   1.381        -22.051
   1.383        -22.055
   1.386        -22.056
   1.388        -22.058
   1.390        -22.059
   1.392        -22.061
   1.394        -22.062
   1.397        -22.064
   1.399        -22.065
   1.401        -22.067
   1.403        -22.068
   1.405        -22.070
   1.407        -22.073
   1.410        -22.075
   1.412        -22.077
   1.414        -22.079
   1.416        -22.081
   1.418        -22.084
   1.420        -22.086
   1.423        -22.088
   1.425        -22.090
   1.427        -22.093
   1.429        -22.096
   1.431        -22.099
   1.433        -22.102
   1.436        -22.104
   1.438        -22.107
   1.440        -22.110
   1.442        -22.113
   1.444        -22.116
   1.446        -22.119
   1.449        -22.122
   1.451        -22.126
   1.453        -22.130
   1.455        -22.133
   1.457        -22.137
   1.460        -22.140
   1.462        -22.144
   1.464        -22.147
   1.466        -22.151
   1.468        -22.155
   1.470        -22.159
   1.472        -22.162
   1.475        -22.166
   1.477        -22.170
   1.479        -22.174
   1.481        -22.178
   1.483        -22.182
   1.486        -22.186
   1.488        -22.190
   1.490        -22.193
   1.492        -22.197
   1.494        -22.200
   1.496        -22.204
   1.498        -22.207
   1.501        -22.211
   1.503        -22.214
   1.505        -22.218
   1.507        -22.221
   1.509        -22.223
   1.512        -22.225
   1.514        -22.227
   1.516        -22.229
   1.518        -22.231
   1.520        -22.232
   1.522        -22.234
   1.525        -22.236
   1.527        -22.238
   1.529        -22.238
   1.531        -22.234
   1.533        -22.229
   1.535        -22.225
   1.538        -22.220
   1.540        -22.216
   1.542        -22.211
   1.544        -22.206
   1.546        -22.202
   1.549        -22.197
   1.551        -22.188
   1.553        -22.176
   1.555        -22.164
   1.557        -22.151
   1.559        -22.139
   1.561        -22.127
   1.564        -22.115
   1.566        -22.103
   1.568        -22.091
   1.570        -22.077
   1.572        -22.057
   1.575        -22.036
   1.577        -22.015
   1.579        -21.994
   1.581        -21.973
   1.583        -21.952
   1.585        -21.931
   1.588        -21.910
   1.590        -22.033
   1.592        -22.396
   1.594        -22.400
   1.596        -22.403
   1.598        -22.407
   1.601        -22.411
   1.603        -22.414
   1.605        -22.418
   1.607        -22.421
   1.609        -22.425
   1.611        -22.429
   1.614        -22.434
   1.616        -22.440
   1.618        -22.445
   1.620        -22.451
   1.622        -22.456
   1.624        -22.462
   1.627        -22.467
   1.629        -22.473
   1.631        -22.478
   1.633        -22.484
   1.635        -22.491
   1.637        -22.498
   1.640        -22.505
   1.642        -22.512
   1.644        -22.519
   1.646        -22.526
   1.648        -22.533
   1.651        -22.539
   1.653        -22.546
   1.655        -22.556
   1.657        -22.566
   1.659        -22.576
   1.661        -22.587
   1.664        -22.597
   1.666        -22.607
   1.668        -22.617
   1.670        -22.627
   1.672        -22.638
   1.674        -22.650
   1.676        -22.669
   1.679        -22.690
   1.681        -22.710
   1.683        -22.730
   1.685        -22.751
   1.687        -22.771
   1.690        -22.791
   1.692        -22.812
   1.694        -22.832
   1.696        -22.900
   1.699        -23.022
   1.701        -23.128
   1.703        -23.226
   1.705        -23.324
   1.707        -23.430
   1.709        -23.535
   1.711        -23.641
   1.714        -23.758
   1.716        -23.776
   1.718        -23.806
   1.720        -23.836
   1.722        -23.873
   1.724        -23.910
   1.727        -23.946
   1.729        -23.983
   1.731        -24.020
   1.733        -24.056
   1.735        -24.093
   1.737        -24.125
   1.739        -24.151
   1.742        -24.177
   1.744        -24.203
   1.746        -24.229
   1.748        -24.255
   1.750        -24.281
   1.753        -24.306
   1.755        -24.332
   1.757        -24.357
   1.759        -24.373
   1.761        -24.386
   1.763        -24.399
   1.766        -24.413
   1.768        -24.426
   1.770        -24.439
   1.772        -24.452
   1.774        -24.465
   1.776        -24.478
   1.779        -24.489
   1.781        -24.494
   1.783        -24.499
   1.785        -24.505
   1.787        -24.509
   1.789        -24.515
   1.792        -24.520
   1.794        -24.525
   1.796        -24.530
   1.798        -24.535
   1.800        -24.538
   1.802        -24.540
   1.805        -24.542
   1.807        -24.543
   1.809        -24.545
   1.811        -24.547
   1.813        -24.549
   1.816        -24.551
   1.818        -24.552
   1.820        -24.554
   1.822        -24.555
   1.824        -24.556
   1.826        -24.557
   1.829        -24.557
   1.831        -24.558
   1.833        -24.559
   1.835        -24.560
   1.837        -24.561
   1.839        -24.561
   1.842        -24.562
   1.844        -24.563
   1.846        -24.563
   1.848        -24.564
   1.850        -24.564
   1.852        -24.565
   1.855        -24.565
   1.857        -24.565
   1.859        -24.566
   1.861        -24.566
   1.863        -24.567
   1.865        -24.567
   1.868        -24.567
   1.870        -24.568
   1.872        -24.568
   1.874        -24.568
   1.876        -24.568
   1.878        -24.569
   1.881        -24.569
   1.883        -24.569
   1.885        -24.569
   1.887        -24.570
   1.889        -24.570
   1.891        -24.570
   1.894        -24.570
   1.896        -24.570
   1.898        -24.571
   1.900        -24.571
   1.902        -24.571
   1.905        -24.571
   1.907        -24.571
   1.909        -24.571
   1.911        -24.571
   1.913        -24.572
   1.915        -24.572
   1.918        -24.572
   1.920        -24.572
   1.922        -24.572
   1.924        -24.572
   1.926        -24.572
   1.928        -24.572
   1.931        -24.572
   1.933        -24.572
   1.935        -24.572
   1.937        -24.572
   1.939        -24.573
   1.941        -24.573
   1.944        -24.573
   1.946        -24.573
   1.948        -24.573
   1.950        -24.573
   1.952        -24.573
   1.954        -24.573
   1.957        -24.573
   1.959        -24.573
   1.961        -24.573
   1.963        -24.573
   1.965        -24.573
   1.967        -24.573
   1.970        -24.572
   1.972        -24.572
   1.974        -24.572
   1.976        -24.572
   1.978        -24.572
   1.980        -24.572
   1.983        -24.572
   1.985        -24.572
   1.987        -24.572
   1.989        -24.571
   1.991        -24.571
   1.993        -24.571
   1.996        -24.571
   1.998        -24.571
   2.000        -24.570
   2.002        -24.570
   2.004        -24.570
   2.007        -24.570
   2.009        -24.570
   2.011        -24.569
   2.013        -24.569
   2.015        -24.569
   2.017        -24.569
   2.020        -24.568
   2.022        -24.568
   2.024        -24.568
   2.026        -24.567
   2.028        -24.567
   2.030        -24.567
   2.033        -24.566
   2.035        -24.566
   2.037        -24.566
   2.039        -24.565
   2.041        -24.565
   2.043        -24.565
   2.046        -24.564
   2.048        -24.564
   2.050        -24.563
   2.052        -24.563
   2.054        -24.562
   2.056        -24.562
   2.059        -24.562
   2.061        -24.561
   2.063        -24.561
   2.065        -24.560
   2.067        -24.560
   2.069        -24.559
   2.072        -24.559
   2.074        -24.558
   2.076        -24.558
   2.078        -24.557
   2.080        -24.557
   2.083        -24.556
   2.085        -24.555
   2.087        -24.555
   2.089        -24.554
   2.091        -24.554
   2.093        -24.554
   2.096        -24.553
   2.098        -24.553
   2.100        -24.552
   2.102        -24.552
   2.104        -24.552
   2.106        -24.551
   2.109        -24.551
   2.111        -24.551
   2.113        -24.550
   2.115        -24.549
   2.117        -24.549
   2.120        -24.548
   2.122        -24.547
   2.124        -24.546
   2.126        -24.545
   2.128        -24.544
   2.130        -24.543
   2.133        -24.542
   2.135        -24.541
   2.137        -24.540
   2.139        -24.539
   2.141        -24.539
   2.143        -24.538
   2.145        -24.537
   2.148        -24.536
   2.150        -24.535
   2.152        -24.534
   2.154        -24.533
   2.157        -24.532
   2.158        -24.531
   2.161        -24.530
   2.163        -24.529
   2.165        -24.528
   2.167        -24.527
   2.169        -24.526
   2.172        -24.525
   2.174        -24.524
   2.176        -24.523
   2.178        -24.522
   2.180        -24.521
   2.183        -24.520
   2.185        -24.518
   2.187        -24.517
   2.189        -24.516
   2.191        -24.515
   2.193        -24.514
   2.195        -24.513
   2.197        -24.512
   2.200        -24.510
   2.202        -24.510
   2.204        -24.508
   2.206        -24.507
   2.208        -24.506
   2.211        -24.505
   2.213        -24.504
   2.215        -24.502
   2.217        -24.501
   2.219        -24.500
   2.221        -24.499
   2.224        -24.497
   2.226        -24.496
   2.228        -24.495
   2.230        -24.494
   2.232        -24.492
   2.235        -24.491
   2.237        -24.490
   2.239        -24.488
   2.241        -24.487
   2.243        -24.486
   2.245        -24.484
   2.247        -24.483
   2.250        -24.482
   2.252        -24.481
   2.254        -24.479
   2.256        -24.478
   2.259        -24.477
   2.261        -24.475
   2.263        -24.474
   2.265        -24.472
   2.267        -24.471
   2.269        -24.470
   2.271        -24.468
   2.274        -24.467
   2.276        -24.465
   2.278        -24.464
   2.280        -24.462
   2.282        -24.461
   2.284        -24.459
   2.287        -24.458
   2.289        -24.457
   2.291        -24.455
   2.293        -24.454
   2.295        -24.452
   2.297        -24.451
   2.299        -24.449
   2.302        -24.448
   2.304        -24.446
   2.306        -24.445
   2.308        -24.443
   2.310        -24.441
   2.313        -24.440
   2.315        -24.438
   2.317        -24.437
   2.319        -24.435
   2.321        -24.434
   2.323        -24.432
   2.326        -24.431
   2.328        -24.429
   2.330        -24.428
   2.332        -24.426
   2.334        -24.424
   2.337        -24.423
   2.339        -24.421
   2.341        -24.419
   2.343        -24.418
   2.345        -24.416
   2.347        -24.415
   2.349        -24.413
   2.352        -24.411
   2.354        -24.410
   2.356        -24.408
   2.358        -24.407
   2.360        -24.405
   2.363        -24.403
   2.365        -24.402
   2.367        -24.400
   2.369        -24.399
   2.371        -24.397
   2.374        -24.395
   2.376        -24.394
   2.378        -24.392
   2.380        -24.390
   2.382        -24.389
   2.384        -24.387
   2.386        -24.386
   2.389        -24.384
   2.391        -24.382
   2.393        -24.381
   2.395        -24.379
   2.397        -24.377
   2.400        -24.376
   2.402        -24.374
   2.404        -24.373
   2.406        -24.372
   2.408        -24.371
   2.410        -24.370
   2.413        -24.369
   2.415        -24.369
   2.417        -24.367
   2.419        -24.367
   2.421        -24.366
   2.423        -24.365
   2.425        -24.364
   2.428        -24.363
   2.430        -24.362
   2.432        -24.361
   2.434        -24.361
   2.436        -24.360
   2.439        -24.359
   2.441        -24.358
   2.443        -24.358
   2.445        -24.357
   2.447        -24.355
   2.449        -24.354
   2.452        -24.352
   2.454        -24.351
   2.456        -24.349
   2.458        -24.348
   2.460        -24.347
   2.462        -24.345
   2.465        -24.344
   2.467        -24.342
   2.469        -24.341
   2.471        -24.339
   2.473        -24.338
   2.475        -24.336
   2.478        -24.335
   2.480        -24.333
   2.482        -24.332
   2.484        -24.330
   2.486        -24.329
   2.489        -24.327
   2.491        -24.326
   2.493        -24.324
   2.495        -24.323
   2.497        -24.321
   2.499        -24.320
   2.502        -24.319
   2.504        -24.317
   2.506        -24.316
   2.508        -24.314
   2.510        -24.313
   2.512        -24.312
   2.514        -24.310
   2.517        -24.309
   2.519        -24.308
   2.521        -24.306
   2.523        -24.305
   2.525        -24.303
   2.528        -24.302
   2.530        -24.301
   2.532        -24.300
   2.534        -24.298
   2.536        -24.297
   2.538        -24.296
   2.541        -24.295
   2.543        -24.293
   2.545        -24.292
   2.547        -24.291
   2.549        -24.290
   2.552        -24.289
   2.554        -24.287
   2.556        -24.286
   2.558        -24.285
   2.560        -24.284
   2.562        -24.283
   2.565        -24.282
   2.567        -24.281
   2.569        -24.280
   2.571        -24.279
   2.573        -24.278
   2.575        -24.277
   2.578        -24.276
   2.580        -24.275
   2.582        -24.274
   2.584        -24.273
   2.586        -24.272
   2.588        -24.271
   2.590        -24.270
   2.593        -24.269
   2.595        -24.269
   2.597        -24.268
   2.599        -24.267
   2.601        -24.266
   2.604        -24.266
   2.606        -24.265
   2.608        -24.264
   2.610        -24.263
   2.612        -24.263
   2.614        -24.263
   2.617        -24.262
   2.619        -24.262
   2.621        -24.262
   2.623        -24.262
   2.625        -24.261
   2.627        -24.261
   2.630        -24.261
   2.632        -24.261
   2.634        -24.262
   2.636        -24.263
   2.638        -24.264
   2.641        -24.265
   2.643        -24.265
   2.645        -24.266
   2.647        -24.267
   2.649        -24.268
   2.651        -24.269
   2.654        -24.271
   2.656        -24.275
   2.658        -24.279
   2.660        -24.282
   2.662        -24.286
   2.664        -24.290
   2.666        -24.294
   2.669        -24.297
   2.671        -24.301
   2.673        -24.305
   2.675        -24.311
   2.677        -24.318
   2.680        -24.325
   2.682        -24.331
   2.684        -24.338
   2.686        -24.345
   2.688        -24.352
   2.690        -24.359
   2.693        -24.365
   2.695        -24.372
   2.697        -24.380
   2.699        -24.388
   2.701        -24.396
   2.703        -24.404
   2.706        -24.412
   2.708        -24.420
   2.710        -24.428
   2.712        -24.435
   2.714        -24.443
   2.716        -24.451
   2.719        -24.459
   2.721        -24.467
   2.723        -24.474
   2.725        -24.482
   2.727        -24.490
   2.729        -24.498
   2.732        -24.505
   2.734        -24.513
   2.736        -24.521
   2.738        -24.529
   2.740        -24.536
   2.743        -24.544
   2.745        -24.551
   2.747        -24.558
   2.749        -24.566
   2.751        -24.573
   2.753        -24.581
   2.756        -24.588
   2.758        -24.596
   2.760        -24.603
   2.762        -24.611
   2.764        -24.619
   2.766        -24.626
   2.769        -24.634
   2.771        -24.641
   2.773        -24.649
   2.775        -24.657
   2.777        -24.664
   2.779        -24.672
   2.782        -24.679
   2.784        -24.687
   2.786        -24.695
   2.788        -24.702
   2.790        -24.710
   2.792        -24.717
   2.795        -24.725
   2.797        -24.733
   2.799        -24.740
   2.801        -24.748
   2.803        -24.756
   2.805        -24.763
   2.808        -24.771
   2.810        -24.779
   2.812        -24.786
   2.814        -24.794
   2.816        -24.801
   2.819        -24.809
   2.821        -24.817
   2.823        -24.824
   2.825        -24.832
   2.827        -24.840
   2.829        -24.847
   2.832        -24.855
   2.834        -24.863
   2.836        -24.870
   2.838        -24.878
   2.840        -24.886
   2.842        -24.893
   2.845        -24.901
   2.847        -24.909
   2.849        -24.917
   2.851        -24.924
   2.853        -24.932
   2.855        -24.940
   2.858        -24.947
   2.860        -24.955
   2.862        -24.963
   2.864        -24.970
   2.866        -24.977
   2.868        -24.985
   2.871        -24.992
   2.873        -24.999
   2.875        -25.007
   2.877        -25.014
   2.879        -25.022
   2.881        -25.029
   2.884        -25.036
   2.886        -25.044
   2.888        -25.052
   2.890        -25.059
   2.892        -25.067
   2.894        -25.074
   2.897        -25.082
   2.899        -25.089
   2.901        -25.097
   2.903        -25.104
   2.905        -25.112
   2.908        -25.119
   2.910        -25.126
   2.912        -25.134
   2.914        -25.141
   2.916        -25.149
   2.918        -25.156
   2.921        -25.164
   2.923        -25.171
   2.925        -25.179
   2.927        -25.186
   2.929        -25.193
   2.931        -25.200
   2.934        -25.207
   2.936        -25.214
   2.938        -25.222
   2.940        -25.229
   2.942        -25.236
   2.944        -25.243
   2.947        -25.250
   2.949        -25.257
   2.951        -25.264
   2.953        -25.271
   2.955        -25.277
   2.957        -25.284
   2.960        -25.291
   2.962        -25.298
   2.964        -25.305
   2.966        -25.311
   2.968        -25.318
   2.970        -25.325
   2.973        -25.331
   2.975        -25.338
   2.977        -25.345
   2.979        -25.352
   2.981        -25.359
   2.984        -25.365
   2.986        -25.372
   2.988        -25.378
   2.990        -25.385
   2.992        -25.391
   2.994        -25.397
   2.997        -25.404
   2.999        -25.411
   3.001        -25.417
   3.003        -25.423
   3.005        -25.430
   3.007        -25.436
   3.010        -25.443
   3.012        -25.449
   3.014        -25.455
   3.016        -25.461
   3.018        -25.467
   3.020        -25.473
   3.023        -25.480
   3.025        -25.485
   3.027        -25.492
   3.029        -25.498
   3.031        -25.504
   3.033        -25.510
   3.036        -25.516
   3.038        -25.521
   3.040        -25.527
   3.042        -25.533
   3.044        -25.539
   3.046        -25.545
   3.049        -25.551
   3.051        -25.557
   3.053        -25.562
   3.055        -25.568
   3.057        -25.574
   3.060        -25.579
   3.062        -25.585
   3.064        -25.591
   3.066        -25.596
   3.068        -25.602
   3.070        -25.608
   3.073        -25.613
   3.075        -25.619
   3.077        -25.624
   3.079        -25.630
   3.081        -25.636
   3.083        -25.641
   3.086        -25.647
   3.088        -25.653
   3.090        -25.658
   3.092        -25.663
   3.094        -25.669
   3.096        -25.674
   3.099        -25.679
   3.101        -25.684
   3.103        -25.690
   3.105        -25.695
   3.107        -25.700
   3.109        -25.705
   3.112        -25.710
   3.114        -25.715
   3.116        -25.721
   3.118        -25.725
   3.120        -25.730
   3.123        -25.735
   3.125        -25.740
   3.127        -25.745
   3.129        -25.750
   3.131        -25.755
   3.133        -25.760
   3.136        -25.765
   3.138        -25.769
   3.140        -25.774
   3.142        -25.779
   3.144        -25.783
   3.146        -25.788
   3.149        -25.793
   3.151        -25.797
   3.153        -25.802
   3.155        -25.806
   3.157        -25.811
   3.159        -25.815
   3.162        -25.820
   3.164        -25.824
   3.166        -25.828
   3.168        -25.833
   3.170        -25.837
   3.172        -25.842
   3.175        -25.846
   3.177        -25.851
   3.179        -25.855
   3.181        -25.859
   3.183        -25.863
   3.185        -25.867
   3.188        -25.872
   3.190        -25.876
   3.192        -25.880
   3.194        -25.884
   3.196        -25.888
   3.199        -25.892
   3.201        -25.896
   3.203        -25.900
   3.205        -25.904
   3.207        -25.908
   3.209        -25.912
   3.212        -25.916
   3.214        -25.920
   3.216        -25.924
   3.218        -25.928
   3.220        -25.932
   3.222        -25.936
   3.225        -25.940
   3.227        -25.944
   3.229        -25.948
   3.231        -25.951
   3.233        -25.956
   3.236        -25.960
   3.237        -25.963
   3.240        -25.967
   3.242        -25.971
   3.244        -25.975
   3.246        -25.979
   3.248        -25.983
   3.251        -25.987
   3.253        -25.991
   3.255        -25.995
   3.257        -25.999
   3.259        -26.002
   3.261        -26.006
   3.263        -26.009
   3.266        -26.013
   3.268        -26.017
   3.270        -26.020
   3.272        -26.024
   3.274        -26.027
   3.277        -26.031
   3.279        -26.034
   3.281        -26.037
   3.283        -26.040
   3.285        -26.044
   3.287        -26.047
   3.290        -26.050
   3.292        -26.053
   3.294        -26.056
   3.296        -26.059
   3.298        -26.063
   3.301        -26.066
   3.303        -26.069
   3.305        -26.072
   3.307        -26.076
   3.309        -26.079
   3.311        -26.082
   3.313        -26.085
   3.316        -26.088
   3.318        -26.092
   3.320        -26.095
   3.322        -26.098
   3.324        -26.101
   3.327        -26.105
   3.329        -26.108
   3.331        -26.111
   3.333        -26.114
   3.335        -26.117
   3.337        -26.121
   3.340        -26.124
   3.342        -26.127
   3.344        -26.130
   3.346        -26.133
   3.348        -26.136
   3.350        -26.139
   3.352        -26.142
   3.355        -26.145
   3.357        -26.149
   3.359        -26.152
   3.361        -26.155
   3.363        -26.158
   3.366        -26.161
   3.368        -26.164
   3.370        -26.167
   3.372        -26.170
   3.374        -26.173
   3.376        -26.176
   3.379        -26.179
   3.381        -26.182
   3.383        -26.185
   3.385        -26.188
   3.387        -26.191
   3.389        -26.194
   3.392        -26.197
   3.394        -26.200
   3.396        -26.203
   3.398        -26.206
   3.400        -26.209
   3.402        -26.211
   3.405        -26.214
   3.407        -26.217
   3.409        -26.220
   3.411        -26.222
   3.413        -26.225
   3.416        -26.228
   3.418        -26.230
   3.420        -26.233
   3.422        -26.236
   3.424        -26.238
   3.426        -26.241
   3.429        -26.243
   3.431        -26.246
   3.433        -26.248
   3.435        -26.251
   3.437        -26.254
   3.439        -26.256
   3.442        -26.259
   3.444        -26.261
   3.446        -26.264
   3.448        -26.267
   3.450        -26.269
   3.452        -26.271
   3.455        -26.274
   3.457        -26.276
   3.459        -26.279
   3.461        -26.282
   3.463        -26.284
   3.466        -26.287
   3.468        -26.289
   3.470        -26.292
   3.472        -26.294
   3.474        -26.297
   3.476        -26.299
   3.478        -26.302
   3.481        -26.304
   3.483        -26.307
   3.485        -26.309
   3.487        -26.312
   3.489        -26.314
   3.492        -26.317
   3.494        -26.319
   3.496        -26.321
   3.498        -26.324
   3.500        -26.326
   3.502        -26.329
   3.505        -26.331
   3.507        -26.334
   3.509        -26.336
   3.511        -26.338
   3.513        -26.341
   3.515        -26.343
   3.518        -26.345
   3.520        -26.348
   3.522        -26.350
   3.524        -26.352
   3.526        -26.355
   3.528        -26.357
   3.531        -26.359
   3.533        -26.361
   3.535        -26.364
   3.537        -26.366
   3.539        -26.368
   3.541        -26.370
   3.544        -26.373
   3.546        -26.375
   3.548        -26.377
   3.550        -26.379
   3.552        -26.381
   3.555        -26.384
   3.557        -26.386
   3.559        -26.388
   3.561        -26.390
   3.563        -26.393
   3.565        -26.395
   3.568        -26.397
   3.570        -26.399
   3.572        -26.401
   3.574        -26.404
   3.576        -26.406
   3.578        -26.408
   3.581        -26.410
   3.583        -26.412
   3.585        -26.415
   3.587        -26.417
   3.589        -26.419
   3.591        -26.421
   3.594        -26.423
   3.596        -26.425
   3.598        -26.427
   3.600        -26.429
   3.602        -26.431
   3.604        -26.434
   3.607        -26.436
   3.609        -26.438
   3.611        -26.440
   3.613        -26.442
   3.615        -26.444
   3.617        -26.446
   3.620        -26.448
   3.622        -26.450
   3.624        -26.452
   3.626        -26.454
   3.628        -26.456
   3.630        -26.458
   3.633        -26.460
   3.635        -26.462
   3.637        -26.464
   3.639        -26.466
   3.641        -26.468
   3.644        -26.469
   3.646        -26.471
   3.648        -26.473
   3.650        -26.475
   3.652        -26.477
   3.654        -26.479
   3.657        -26.481
   3.659        -26.483
   3.661        -26.485
   3.663        -26.487
   3.665        -26.489
   3.667        -26.490
   3.670        -26.492
   3.672        -26.494
   3.674        -26.496
   3.676        -26.498
   3.678        -26.500
   3.680        -26.502
   3.683        -26.504
   3.685        -26.505
   3.687        -26.507
   3.689        -26.509
   3.691        -26.511
   3.693        -26.513
   3.696        -26.515
   3.698        -26.517
   3.700        -26.518
   3.702        -26.520
   3.704        -26.522
   3.706        -26.524
   3.709        -26.525
   3.711        -26.527
   3.713        -26.529
   3.715        -26.531
   3.717        -26.533
   3.719        -26.534
   3.722        -26.536
   3.724        -26.538
   3.726        -26.540
   3.728        -26.541
   3.730        -26.543
   3.733        -26.545
   3.735        -26.547
   3.737        -26.548
   3.739        -26.550
   3.741        -26.552
   3.743        -26.553
   3.746        -26.555
   3.748        -26.557
   3.750        -26.559
   3.752        -26.560
   3.754        -26.562
   3.756        -26.564
   3.759        -26.565
   3.761        -26.567
   3.763        -26.569
   3.765        -26.571
   3.767        -26.572
   3.769        -26.574
   3.772        -26.576
   3.774        -26.577
   3.776        -26.579
   3.778        -26.581
   3.780        -26.582
   3.782        -26.584
   3.785        -26.586
   3.787        -26.588
   3.789        -26.589
   3.791        -26.591
   3.793        -26.593
   3.795        -26.595
   3.798        -26.596
   3.800        -26.598
   3.802        -26.600
   3.804        -26.602
   3.806        -26.604
   3.809        -26.606
   3.811        -26.608
   3.813        -26.610
   3.815        -26.612
   3.817        -26.614
   3.819        -26.616
   3.822        -26.619
   3.824        -26.622
   3.826        -26.626
   3.828        -26.629
   3.830        -26.632
   3.832        -26.635
   3.835        -26.638
   3.837        -26.642
   3.839        -26.645
   3.841        -26.649
   3.843        -26.654
   3.845        -26.659
   3.848        -26.665
   3.850        -26.670
   3.852        -26.675
   3.854        -26.680
   3.856        -26.685
   3.858        -26.690
   3.861        -26.694
   3.863        -26.696
   3.865        -26.698
   3.867        -26.700
   3.869        -26.702
   3.871        -26.704
   3.874        -26.705
   3.876        -26.707
   3.878        -26.709
   3.880        -26.711
   3.882        -26.712
   3.885        -26.714
   3.887        -26.715
   3.889        -26.716
   3.891        -26.718
   3.899        -26.722
   3.912        -26.732
   3.925        -26.743
   3.938        -26.752
   3.951        -26.762
   3.964        -26.771
   3.977        -26.780
   3.990        -26.788
   4.003        -26.797
   4.016        -26.806
   4.029        -26.814
   4.042        -26.823
   4.055        -26.831
   4.068        -26.839
   4.081        -26.848
   4.094        -26.856
   4.107        -26.864
   4.120        -26.872
   4.133        -26.881
   4.146        -26.889
   4.159        -26.897
   4.172        -26.905
   4.185        -26.912
   4.198        -26.919
   4.211        -26.926
   4.224        -26.932
   4.237        -26.939
   4.250        -26.946
   4.263        -26.953
   4.276        -26.960
   4.289        -26.968
   4.302        -26.976
   4.315        -26.984
   4.328        -26.993
   4.341        -27.002
   4.354        -27.011
   4.367        -27.021
   4.380        -27.032
   4.393        -27.043
   4.406        -27.054
   4.420        -27.066
   4.432        -27.079
   4.445        -27.092
   4.459        -27.105
   4.471        -27.119
   4.484        -27.132
   4.498        -27.146
   4.510        -27.161
   4.524        -27.175
   4.537        -27.190
   4.550        -27.205
   4.563        -27.220
   4.576        -27.236
   4.589        -27.252
   4.602        -27.267
   4.615        -27.284
   4.628        -27.300
   4.641        -27.317
   4.654        -27.333
   4.667        -27.350
   4.680        -27.366
   4.693        -27.383
   4.706        -27.401
   4.719        -27.418
   4.732        -27.435
   4.745        -27.453
   4.758        -27.470
   4.771        -27.488
   4.784        -27.506
   4.797        -27.524
   4.810        -27.542
   4.823        -27.560
   4.836        -27.579
   4.849        -27.597
   4.862        -27.616
   4.875        -27.634
   4.888        -27.653
   4.901        -27.673
   4.914        -27.692
   4.927        -27.711
   4.940        -27.730
   4.953        -27.750
   4.966        -27.770
   4.979        -27.789
   4.992        -27.809
   5.005        -27.829
   5.018        -27.849
   5.031        -27.870
   5.044        -27.890
   5.057        -27.911
   5.070        -27.932
   5.083        -27.953
   5.096        -27.973
   5.109        -27.995
   5.123        -28.016
   5.136        -28.038
   5.149        -28.059
   5.162        -28.080
   5.175        -28.102
   5.188        -28.124
   5.201        -28.146
   5.214        -28.167
   5.227        -28.190
   5.240        -28.212
   5.253        -28.233
   5.266        -28.255
   5.279        -28.278
   5.292        -28.300
   5.305        -28.322
   5.318        -28.343
   5.331        -28.365
   5.344        -28.388
   5.357        -28.410
   5.370        -28.432
   5.383        -28.454
   5.396        -28.477
   5.409        -28.499
   5.422        -28.522
   5.435        -28.544
   5.448        -28.568
   5.461        -28.592
   5.474        -28.615
   5.487        -28.638
   5.500        -28.662
   5.513        -28.686
   5.526        -28.711
   5.539        -28.735
   5.552        -28.760
   5.565        -28.785
   5.578        -28.811
   5.591        -28.836
   5.604        -28.862
   5.617        -28.888
   5.630        -28.915
   5.643        -28.942
   5.656        -28.969
   5.669        -28.996
   5.682        -29.025
   5.695        -29.053
   5.708        -29.081
   5.721        -29.110
   5.734        -29.140
   5.748        -29.170
   5.761        -29.200
   5.774        -29.231
   5.787        -29.263
   5.800        -29.295
   5.813        -29.326
   5.826        -29.359
   5.839        -29.393
   5.852        -29.427
   5.865        -29.461
   5.878        -29.496
   5.891        -29.532
   5.904        -29.569
   5.917        -29.606
   5.930        -29.643
   5.943        -29.682
   5.956        -29.722
   5.969        -29.762
   5.982        -29.801
   5.995        -29.843
   6.008        -29.887
   6.021        -29.930
   6.034        -29.974
   6.047        -30.017
   6.060        -30.065
   6.073        -30.113
   6.086        -30.159
   6.099        -30.208
   6.112        -30.258
   6.125        -30.312
   6.138        -30.364
   6.151        -30.414
   6.164        -30.470
   6.177        -30.526
   6.190        -30.584
   6.203        -30.642
   6.216        -30.700
   6.229        -30.764
   6.242        -30.827
   6.255        -30.889
   6.268        -30.954
   6.281        -31.023
   6.294        -31.096
   6.307        -31.164
   6.320        -31.232
   6.334        -31.308
   6.346        -31.385
   6.359        -31.464
   6.372        -31.540
   6.386        -31.622
   6.399        -31.710
   6.411        -31.794
   6.425        -31.880
   6.438        -31.968
   6.451        -32.066
   6.464        -32.168
   6.477        -32.257
   6.490        -32.352
   6.503        -32.459
   6.516        -32.567
   6.529        -32.674
   6.542        -32.779
   6.555        -32.896
   6.568        -33.020
   6.581        -33.134
   6.594        -33.252
   6.607        -33.378
   6.620        -33.522
   6.633        -33.664
   6.646        -33.782
   6.659        -33.919
   6.672        -34.070
   6.685        -34.222
   6.698        -34.370
   6.711        -34.515
   6.724        -34.689
   6.737        -34.865
   6.750        -35.018
   6.763        -35.185
   6.776        -35.370
   6.789        -35.583
   6.802        -35.775
   6.815        -35.929
   6.828        -36.134
   6.841        -36.353
   6.854        -36.563
   6.867        -36.766
   6.880        -37.196
   6.893        -40.723
