# log Energy    log Jnu
# (eV)          (ergs/s/cm2/Hz/Sr)
  -6.864        -20.831
  -6.820        -20.744
  -6.777        -20.657
  -6.734        -20.570
  -6.690        -20.484
  -6.647        -20.397
  -6.603        -20.310
  -6.560        -20.223
  -6.516        -20.136
  -6.473        -20.049
  -6.430        -19.962
  -6.386        -19.876
  -6.343        -19.789
  -6.299        -19.702
  -6.256        -19.615
  -6.212        -19.528
  -6.169        -19.442
  -6.126        -19.355
  -6.082        -19.268
  -6.039        -19.181
  -5.995        -19.094
  -5.952        -19.008
  -5.908        -18.921
  -5.865        -18.834
  -5.822        -18.747
  -5.778        -18.660
  -5.735        -18.574
  -5.691        -18.487
  -5.648        -18.400
  -5.605        -18.314
  -5.561        -18.227
  -5.518        -18.140
  -5.474        -18.054
  -5.431        -17.967
  -5.387        -17.880
  -5.344        -17.794
  -5.300        -17.707
  -5.257        -17.621
  -5.214        -17.535
  -5.170        -17.448
  -5.127        -17.362
  -5.083        -17.275
  -5.040        -17.189
  -4.996        -17.103
  -4.953        -17.017
  -4.910        -16.931
  -4.866        -16.845
  -4.823        -16.759
  -4.779        -16.673
  -4.736        -16.587
  -4.692        -16.502
  -4.649        -16.417
  -4.606        -16.331
  -4.562        -16.246
  -4.519        -16.162
  -4.475        -16.077
  -4.432        -15.993
  -4.388        -15.909
  -4.345        -15.825
  -4.302        -15.741
  -4.258        -15.658
  -4.215        -15.575
  -4.171        -15.493
  -4.128        -15.411
  -4.084        -15.330
  -4.041        -15.250
  -3.998        -15.170
  -3.954        -15.091
  -3.911        -15.012
  -3.867        -14.935
  -3.824        -14.859
  -3.781        -14.784
  -3.737        -14.710
  -3.693        -14.638
  -3.650        -14.568
  -3.607        -14.500
  -3.584        -14.468
  -3.582        -14.459
  -3.580        -14.458
  -3.577        -14.455
  -3.575        -14.452
  -3.573        -14.449
  -3.571        -14.445
  -3.569        -14.442
  -3.567        -14.439
  -3.564        -14.436
  -3.562        -14.432
  -3.560        -14.429
  -3.558        -14.426
  -3.556        -14.423
  -3.554        -14.419
  -3.551        -14.416
  -3.549        -14.413
  -3.547        -14.410
  -3.545        -14.406
  -3.543        -14.403
  -3.540        -14.400
  -3.538        -14.397
  -3.536        -14.394
  -3.534        -14.390
  -3.532        -14.387
  -3.530        -14.384
  -3.528        -14.381
  -3.525        -14.378
  -3.523        -14.375
  -3.521        -14.372
  -3.519        -14.368
  -3.517        -14.365
  -3.514        -14.362
  -3.512        -14.359
  -3.510        -14.356
  -3.508        -14.353
  -3.506        -14.350
  -3.504        -14.347
  -3.502        -14.344
  -3.499        -14.341
  -3.497        -14.338
  -3.495        -14.334
  -3.493        -14.331
  -3.491        -14.328
  -3.488        -14.325
  -3.486        -14.322
  -3.484        -14.319
  -3.482        -14.316
  -3.480        -14.313
  -3.477        -14.310
  -3.475        -14.307
  -3.473        -14.304
  -3.471        -14.301
  -3.469        -14.298
  -3.467        -14.295
  -3.464        -14.293
  -3.462        -14.290
  -3.460        -14.287
  -3.458        -14.284
  -3.456        -14.281
  -3.454        -14.278
  -3.451        -14.275
  -3.449        -14.272
  -3.447        -14.269
  -3.445        -14.266
  -3.443        -14.263
  -3.441        -14.261
  -3.438        -14.258
  -3.436        -14.255
  -3.434        -14.252
  -3.432        -14.249
  -3.430        -14.246
  -3.428        -14.244
  -3.425        -14.241
  -3.423        -14.238
  -3.421        -14.235
  -3.419        -14.233
  -3.417        -14.230
  -3.415        -14.227
  -3.412        -14.224
  -3.410        -14.221
  -3.408        -14.219
  -3.406        -14.216
  -3.404        -14.213
  -3.402        -14.211
  -3.399        -14.208
  -3.397        -14.205
  -3.395        -14.203
  -3.393        -14.200
  -3.391        -14.197
  -3.389        -14.195
  -3.386        -14.192
  -3.384        -14.189
  -3.382        -14.187
  -3.380        -14.184
  -3.378        -14.182
  -3.376        -14.179
  -3.373        -14.176
  -3.371        -14.174
  -3.369        -14.171
  -3.367        -14.169
  -3.365        -14.166
  -3.362        -14.164
  -3.360        -14.161
  -3.358        -14.159
  -3.356        -14.156
  -3.354        -14.154
  -3.352        -14.151
  -3.349        -14.149
  -3.347        -14.146
  -3.345        -14.144
  -3.343        -14.142
  -3.341        -14.139
  -3.339        -14.137
  -3.336        -14.135
  -3.334        -14.132
  -3.332        -14.130
  -3.330        -14.127
  -3.328        -14.125
  -3.326        -14.123
  -3.323        -14.121
  -3.321        -14.118
  -3.319        -14.116
  -3.317        -14.114
  -3.315        -14.111
  -3.313        -14.109
  -3.310        -14.107
  -3.308        -14.105
  -3.306        -14.103
  -3.304        -14.100
  -3.302        -14.098
  -3.300        -14.096
  -3.297        -14.094
  -3.295        -14.092
  -3.293        -14.090
  -3.291        -14.087
  -3.289        -14.085
  -3.287        -14.083
  -3.284        -14.081
  -3.282        -14.079
  -3.280        -14.077
  -3.278        -14.075
  -3.276        -14.073
  -3.273        -14.071
  -3.271        -14.069
  -3.269        -14.067
  -3.267        -14.065
  -3.265        -14.063
  -3.263        -14.061
  -3.260        -14.059
  -3.258        -14.057
  -3.256        -14.055
  -3.254        -14.054
  -3.252        -14.052
  -3.250        -14.050
  -3.247        -14.048
  -3.245        -14.046
  -3.243        -14.044
  -3.241        -14.043
  -3.239        -14.041
  -3.237        -14.039
  -3.234        -14.037
  -3.232        -14.035
  -3.230        -14.034
  -3.228        -14.032
  -3.226        -14.030
  -3.224        -14.029
  -3.221        -14.027
  -3.219        -14.025
  -3.217        -14.024
  -3.215        -14.022
  -3.213        -14.021
  -3.211        -14.019
  -3.208        -14.018
  -3.206        -14.016
  -3.204        -14.015
  -3.202        -14.013
  -3.200        -14.011
  -3.197        -14.010
  -3.195        -14.009
  -3.193        -14.007
  -3.191        -14.006
  -3.189        -14.004
  -3.187        -14.003
  -3.184        -14.002
  -3.182        -14.000
  -3.180        -13.999
  -3.178        -13.998
  -3.176        -13.996
  -3.174        -13.995
  -3.171        -13.994
  -3.169        -13.993
  -3.167        -13.991
  -3.165        -13.990
  -3.163        -13.989
  -3.161        -13.988
  -3.158        -13.987
  -3.156        -13.986
  -3.154        -13.985
  -3.152        -13.983
  -3.150        -13.982
  -3.148        -13.981
  -3.145        -13.980
  -3.143        -13.979
  -3.141        -13.978
  -3.139        -13.977
  -3.137        -13.977
  -3.135        -13.976
  -3.132        -13.975
  -3.130        -13.974
  -3.128        -13.973
  -3.126        -13.972
  -3.124        -13.971
  -3.122        -13.971
  -3.119        -13.970
  -3.117        -13.969
  -3.115        -13.968
  -3.113        -13.968
  -3.111        -13.967
  -3.108        -13.966
  -3.106        -13.966
  -3.104        -13.965
  -3.102        -13.965
  -3.100        -13.964
  -3.098        -13.963
  -3.095        -13.963
  -3.093        -13.962
  -3.091        -13.962
  -3.089        -13.962
  -3.087        -13.961
  -3.085        -13.961
  -3.082        -13.960
  -3.080        -13.960
  -3.078        -13.960
  -3.076        -13.959
  -3.074        -13.959
  -3.072        -13.959
  -3.069        -13.959
  -3.067        -13.958
  -3.065        -13.958
  -3.063        -13.958
  -3.061        -13.958
  -3.059        -13.958
  -3.056        -13.958
  -3.054        -13.958
  -3.052        -13.958
  -3.050        -13.958
  -3.048        -13.958
  -3.046        -13.958
  -3.043        -13.958
  -3.041        -13.958
  -3.039        -13.958
  -3.037        -13.959
  -3.035        -13.959
  -3.032        -13.959
  -3.030        -13.959
  -3.028        -13.960
  -3.026        -13.960
  -3.024        -13.960
  -3.022        -13.961
  -3.019        -13.961
  -3.017        -13.962
  -3.015        -13.962
  -3.013        -13.963
  -3.011        -13.963
  -3.009        -13.964
  -3.006        -13.964
  -3.004        -13.965
  -3.002        -13.965
  -3.000        -13.966
  -2.998        -13.967
  -2.996        -13.968
  -2.993        -13.968
  -2.991        -13.969
  -2.989        -13.970
  -2.987        -13.971
  -2.985        -13.972
  -2.983        -13.973
  -2.980        -13.974
  -2.978        -13.975
  -2.976        -13.976
  -2.974        -13.977
  -2.972        -13.978
  -2.970        -13.979
  -2.967        -13.980
  -2.965        -13.981
  -2.963        -13.983
  -2.961        -13.984
  -2.959        -13.985
  -2.956        -13.987
  -2.954        -13.988
  -2.952        -13.989
  -2.950        -13.991
  -2.948        -13.992
  -2.946        -13.994
  -2.944        -13.995
  -2.941        -13.997
  -2.939        -13.999
  -2.937        -14.000
  -2.935        -14.002
  -2.933        -14.004
  -2.930        -14.005
  -2.928        -14.007
  -2.926        -14.009
  -2.924        -14.011
  -2.922        -14.013
  -2.920        -14.015
  -2.917        -14.017
  -2.915        -14.019
  -2.913        -14.021
  -2.911        -14.023
  -2.909        -14.025
  -2.907        -14.028
  -2.904        -14.030
  -2.902        -14.032
  -2.900        -14.034
  -2.898        -14.037
  -2.896        -14.039
  -2.894        -14.042
  -2.891        -14.044
  -2.889        -14.047
  -2.887        -14.049
  -2.885        -14.052
  -2.883        -14.055
  -2.880        -14.057
  -2.878        -14.060
  -2.876        -14.063
  -2.874        -14.066
  -2.872        -14.068
  -2.870        -14.071
  -2.867        -14.075
  -2.865        -14.077
  -2.863        -14.080
  -2.861        -14.083
  -2.859        -14.087
  -2.857        -14.090
  -2.855        -14.093
  -2.852        -14.097
  -2.850        -14.100
  -2.848        -14.103
  -2.846        -14.106
  -2.843        -14.110
  -2.842        -14.114
  -2.839        -14.117
  -2.837        -14.121
  -2.835        -14.125
  -2.833        -14.128
  -2.831        -14.132
  -2.828        -14.136
  -2.826        -14.140
  -2.824        -14.143
  -2.822        -14.147
  -2.820        -14.151
  -2.817        -14.156
  -2.815        -14.160
  -2.813        -14.164
  -2.811        -14.168
  -2.809        -14.172
  -2.807        -14.177
  -2.805        -14.181
  -2.802        -14.186
  -2.800        -14.190
  -2.798        -14.195
  -2.796        -14.199
  -2.794        -14.204
  -2.792        -14.208
  -2.789        -14.213
  -2.787        -14.218
  -2.785        -14.223
  -2.783        -14.228
  -2.781        -14.233
  -2.779        -14.238
  -2.776        -14.243
  -2.774        -14.248
  -2.772        -14.253
  -2.770        -14.258
  -2.767        -14.264
  -2.765        -14.269
  -2.763        -14.275
  -2.761        -14.280
  -2.759        -14.285
  -2.757        -14.291
  -2.754        -14.297
  -2.753        -14.302
  -2.750        -14.308
  -2.748        -14.314
  -2.746        -14.320
  -2.744        -14.326
  -2.741        -14.332
  -2.739        -14.338
  -2.737        -14.344
  -2.735        -14.351
  -2.733        -14.357
  -2.731        -14.363
  -2.729        -14.370
  -2.726        -14.376
  -2.724        -14.383
  -2.722        -14.389
  -2.720        -14.396
  -2.718        -14.403
  -2.716        -14.409
  -2.713        -14.416
  -2.711        -14.423
  -2.709        -14.430
  -2.707        -14.437
  -2.705        -14.444
  -2.703        -14.451
  -2.700        -14.459
  -2.698        -14.466
  -2.696        -14.473
  -2.694        -14.481
  -2.692        -14.489
  -2.689        -14.496
  -2.687        -14.504
  -2.685        -14.511
  -2.683        -14.519
  -2.681        -14.527
  -2.679        -14.535
  -2.677        -14.543
  -2.674        -14.551
  -2.672        -14.560
  -2.670        -14.568
  -2.668        -14.576
  -2.666        -14.584
  -2.663        -14.593
  -2.661        -14.601
  -2.659        -14.610
  -2.657        -14.619
  -2.655        -14.627
  -2.653        -14.636
  -2.650        -14.645
  -2.648        -14.654
  -2.646        -14.663
  -2.644        -14.672
  -2.642        -14.682
  -2.640        -14.691
  -2.637        -14.700
  -2.635        -14.710
  -2.633        -14.719
  -2.631        -14.729
  -2.629        -14.739
  -2.626        -14.749
  -2.624        -14.758
  -2.622        -14.768
  -2.620        -14.778
  -2.618        -14.789
  -2.616        -14.798
  -2.614        -14.809
  -2.611        -14.820
  -2.609        -14.830
  -2.607        -14.840
  -2.605        -14.851
  -2.603        -14.862
  -2.600        -14.872
  -2.598        -14.883
  -2.596        -14.894
  -2.594        -14.905
  -2.592        -14.916
  -2.590        -14.928
  -2.587        -14.939
  -2.585        -14.950
  -2.583        -14.962
  -2.581        -14.973
  -2.579        -14.985
  -2.577        -14.997
  -2.574        -15.009
  -2.572        -15.021
  -2.570        -15.033
  -2.568        -15.045
  -2.566        -15.057
  -2.564        -15.069
  -2.561        -15.082
  -2.559        -15.095
  -2.557        -15.107
  -2.555        -15.120
  -2.553        -15.133
  -2.551        -15.145
  -2.548        -15.158
  -2.546        -15.171
  -2.544        -15.185
  -2.542        -15.198
  -2.540        -15.211
  -2.538        -15.225
  -2.535        -15.239
  -2.533        -15.252
  -2.531        -15.266
  -2.529        -15.280
  -2.527        -15.294
  -2.525        -15.308
  -2.522        -15.322
  -2.520        -15.336
  -2.518        -15.351
  -2.516        -15.365
  -2.514        -15.380
  -2.511        -15.395
  -2.509        -15.409
  -2.507        -15.424
  -2.505        -15.439
  -2.503        -15.455
  -2.501        -15.470
  -2.498        -15.485
  -2.496        -15.501
  -2.494        -15.516
  -2.492        -15.532
  -2.490        -15.548
  -2.488        -15.564
  -2.485        -15.580
  -2.483        -15.596
  -2.481        -15.612
  -2.479        -15.629
  -2.477        -15.645
  -2.475        -15.662
  -2.472        -15.678
  -2.470        -15.695
  -2.468        -15.712
  -2.466        -15.729
  -2.464        -15.746
  -2.462        -15.764
  -2.459        -15.781
  -2.457        -15.799
  -2.455        -15.816
  -2.453        -15.834
  -2.451        -15.852
  -2.448        -15.870
  -2.446        -15.888
  -2.444        -15.907
  -2.442        -15.925
  -2.440        -15.943
  -2.438        -15.962
  -2.435        -15.981
  -2.433        -16.000
  -2.431        -16.019
  -2.429        -16.038
  -2.427        -16.057
  -2.425        -16.077
  -2.422        -16.096
  -2.420        -16.116
  -2.418        -16.136
  -2.416        -16.156
  -2.414        -16.176
  -2.412        -16.196
  -2.409        -16.216
  -2.407        -16.237
  -2.405        -16.257
  -2.403        -16.278
  -2.401        -16.299
  -2.398        -16.320
  -2.396        -16.341
  -2.394        -16.363
  -2.392        -16.384
  -2.390        -16.406
  -2.388        -16.427
  -2.386        -16.449
  -2.383        -16.471
  -2.381        -16.493
  -2.379        -16.516
  -2.377        -16.538
  -2.375        -16.561
  -2.372        -16.583
  -2.370        -16.606
  -2.368        -16.629
  -2.366        -16.652
  -2.364        -16.676
  -2.362        -16.699
  -2.359        -16.723
  -2.357        -16.746
  -2.355        -16.770
  -2.353        -16.794
  -2.351        -16.819
  -2.349        -16.843
  -2.346        -16.868
  -2.344        -16.892
  -2.342        -16.917
  -2.340        -16.942
  -2.338        -16.967
  -2.336        -16.992
  -2.333        -17.018
  -2.331        -17.044
  -2.329        -17.069
  -2.327        -17.095
  -2.325        -17.121
  -2.323        -17.148
  -2.320        -17.174
  -2.318        -17.201
  -2.316        -17.227
  -2.314        -17.254
  -2.312        -17.281
  -2.309        -17.309
  -2.307        -17.336
  -2.305        -17.364
  -2.303        -17.391
  -2.301        -17.419
  -2.299        -17.447
  -2.297        -17.475
  -2.294        -17.504
  -2.292        -17.532
  -2.290        -17.561
  -2.288        -17.590
  -2.286        -17.619
  -2.283        -17.648
  -2.281        -17.678
  -2.279        -17.707
  -2.277        -17.737
  -2.275        -17.767
  -2.273        -17.797
  -2.270        -17.827
  -2.268        -17.857
  -2.266        -17.888
  -2.264        -17.919
  -2.262        -17.950
  -2.260        -17.981
  -2.257        -18.012
  -2.255        -18.043
  -2.253        -18.075
  -2.251        -18.106
  -2.249        -18.138
  -2.247        -18.170
  -2.244        -18.202
  -2.242        -18.234
  -2.240        -18.266
  -2.238        -18.299
  -2.236        -18.331
  -2.234        -18.364
  -2.231        -18.396
  -2.229        -18.429
  -2.227        -18.462
  -2.225        -18.495
  -2.223        -18.528
  -2.220        -18.561
  -2.218        -18.594
  -2.216        -18.627
  -2.214        -18.660
  -2.212        -18.693
  -2.210        -18.726
  -2.207        -18.758
  -2.205        -18.791
  -2.203        -18.824
  -2.201        -18.856
  -2.199        -18.888
  -2.197        -18.920
  -2.194        -18.952
  -2.192        -18.983
  -2.190        -19.014
  -2.188        -19.045
  -2.186        -19.075
  -2.184        -19.104
  -2.181        -19.133
  -2.179        -19.162
  -2.177        -19.190
  -2.175        -19.216
  -2.173        -19.243
  -2.171        -19.268
  -2.168        -19.293
  -2.166        -19.317
  -2.164        -19.339
  -2.162        -19.361
  -2.160        -19.382
  -2.158        -19.401
  -2.155        -19.420
  -2.153        -19.437
  -2.151        -19.454
  -2.149        -19.469
  -2.147        -19.483
  -2.145        -19.496
  -2.142        -19.508
  -2.140        -19.519
  -2.138        -19.528
  -2.136        -19.537
  -2.134        -19.545
  -2.131        -19.552
  -2.129        -19.558
  -2.127        -19.563
  -2.125        -19.567
  -2.123        -19.571
  -2.121        -19.574
  -2.118        -19.576
  -2.116        -19.577
  -2.114        -19.579
  -2.112        -19.579
  -2.110        -19.579
  -2.108        -19.579
  -2.105        -19.578
  -2.103        -19.577
  -2.101        -19.576
  -2.099        -19.574
  -2.097        -19.572
  -2.095        -19.569
  -2.092        -19.567
  -2.090        -19.564
  -2.088        -19.561
  -2.086        -19.558
  -2.084        -19.555
  -2.082        -19.552
  -2.079        -19.548
  -2.077        -19.545
  -2.075        -19.541
  -2.073        -19.538
  -2.071        -19.534
  -2.069        -19.530
  -2.066        -19.526
  -2.064        -19.522
  -2.062        -19.518
  -2.060        -19.514
  -2.058        -19.510
  -2.056        -19.506
  -2.053        -19.502
  -2.051        -19.498
  -2.049        -19.493
  -2.047        -19.489
  -2.045        -19.485
  -2.043        -19.481
  -2.040        -19.476
  -2.038        -19.472
  -2.036        -19.468
  -2.034        -19.464
  -2.032        -19.459
  -2.029        -19.455
  -2.027        -19.451
  -2.025        -19.446
  -2.023        -19.442
  -2.021        -19.438
  -2.019        -19.433
  -2.016        -19.429
  -2.014        -19.425
  -2.012        -19.421
  -2.010        -19.416
  -2.008        -19.412
  -2.006        -19.407
  -2.003        -19.403
  -2.001        -19.399
  -1.999        -19.394
  -1.997        -19.390
  -1.995        -19.386
  -1.993        -19.382
  -1.990        -19.377
  -1.988        -19.375
  -1.986        -19.376
  -1.984        -19.377
  -1.982        -19.377
  -1.980        -19.378
  -1.977        -19.379
  -1.975        -19.380
  -1.973        -19.381
  -1.971        -19.382
  -1.969        -19.383
  -1.967        -19.383
  -1.964        -19.384
  -1.962        -19.385
  -1.960        -19.386
  -1.958        -19.387
  -1.956        -19.388
  -1.953        -19.389
  -1.951        -19.390
  -1.949        -19.390
  -1.947        -19.391
  -1.945        -19.392
  -1.943        -19.393
  -1.940        -19.394
  -1.938        -19.395
  -1.936        -19.395
  -1.934        -19.396
  -1.932        -19.397
  -1.930        -19.398
  -1.927        -19.399
  -1.925        -19.400
  -1.923        -19.401
  -1.921        -19.401
  -1.919        -19.402
  -1.917        -19.403
  -1.914        -19.404
  -1.912        -19.405
  -1.910        -19.406
  -1.908        -19.407
  -1.906        -19.408
  -1.904        -19.408
  -1.901        -19.409
  -1.899        -19.410
  -1.897        -19.411
  -1.895        -19.412
  -1.893        -19.412
  -1.891        -19.413
  -1.888        -19.414
  -1.886        -19.415
  -1.884        -19.416
  -1.882        -19.417
  -1.880        -19.418
  -1.877        -19.419
  -1.875        -19.420
  -1.873        -19.420
  -1.871        -19.421
  -1.869        -19.422
  -1.867        -19.423
  -1.864        -19.424
  -1.862        -19.425
  -1.860        -19.426
  -1.858        -19.426
  -1.856        -19.427
  -1.853        -19.428
  -1.851        -19.429
  -1.849        -19.430
  -1.847        -19.431
  -1.845        -19.431
  -1.843        -19.432
  -1.841        -19.433
  -1.838        -19.434
  -1.836        -19.435
  -1.834        -19.436
  -1.832        -19.437
  -1.830        -19.437
  -1.828        -19.438
  -1.825        -19.439
  -1.823        -19.440
  -1.821        -19.441
  -1.819        -19.441
  -1.817        -19.442
  -1.815        -19.443
  -1.812        -19.444
  -1.810        -19.445
  -1.808        -19.446
  -1.806        -19.447
  -1.804        -19.448
  -1.801        -19.448
  -1.799        -19.449
  -1.797        -19.450
  -1.795        -19.451
  -1.793        -19.452
  -1.791        -19.453
  -1.788        -19.454
  -1.786        -19.454
  -1.784        -19.455
  -1.782        -19.456
  -1.780        -19.457
  -1.777        -19.458
  -1.775        -19.459
  -1.773        -19.460
  -1.771        -19.460
  -1.769        -19.461
  -1.767        -19.462
  -1.764        -19.463
  -1.763        -19.464
  -1.760        -19.465
  -1.758        -19.466
  -1.756        -19.466
  -1.754        -19.467
  -1.752        -19.468
  -1.749        -19.469
  -1.747        -19.470
  -1.745        -19.471
  -1.743        -19.472
  -1.741        -19.472
  -1.739        -19.473
  -1.736        -19.474
  -1.734        -19.475
  -1.732        -19.476
  -1.730        -19.477
  -1.728        -19.477
  -1.726        -19.478
  -1.723        -19.479
  -1.721        -19.480
  -1.719        -19.481
  -1.717        -19.481
  -1.715        -19.483
  -1.713        -19.483
  -1.710        -19.484
  -1.708        -19.485
  -1.706        -19.486
  -1.704        -19.487
  -1.702        -19.488
  -1.699        -19.489
  -1.697        -19.489
  -1.695        -19.490
  -1.693        -19.491
  -1.691        -19.492
  -1.689        -19.493
  -1.686        -19.494
  -1.684        -19.494
  -1.682        -19.495
  -1.680        -19.496
  -1.678        -19.497
  -1.675        -19.498
  -1.673        -19.499
  -1.671        -19.500
  -1.669        -19.500
  -1.667        -19.501
  -1.665        -19.502
  -1.663        -19.503
  -1.660        -19.504
  -1.658        -19.505
  -1.656        -19.506
  -1.654        -19.506
  -1.652        -19.507
  -1.650        -19.508
  -1.647        -19.509
  -1.645        -19.510
  -1.643        -19.511
  -1.641        -19.512
  -1.639        -19.512
  -1.637        -19.513
  -1.634        -19.514
  -1.632        -19.515
  -1.630        -19.516
  -1.628        -19.517
  -1.626        -19.517
  -1.623        -19.518
  -1.621        -19.519
  -1.619        -19.520
  -1.617        -19.521
  -1.615        -19.522
  -1.613        -19.523
  -1.611        -19.523
  -1.608        -19.524
  -1.606        -19.525
  -1.604        -19.526
  -1.602        -19.527
  -1.600        -19.528
  -1.597        -19.529
  -1.595        -19.529
  -1.593        -19.530
  -1.591        -19.531
  -1.589        -19.532
  -1.587        -19.533
  -1.584        -19.534
  -1.582        -19.535
  -1.580        -19.536
  -1.578        -19.537
  -1.576        -19.537
  -1.573        -19.539
  -1.571        -19.539
  -1.569        -19.540
  -1.567        -19.541
  -1.565        -19.542
  -1.563        -19.543
  -1.561        -19.544
  -1.558        -19.545
  -1.556        -19.545
  -1.554        -19.546
  -1.552        -19.547
  -1.550        -19.548
  -1.547        -19.549
  -1.545        -19.550
  -1.543        -19.551
  -1.541        -19.552
  -1.539        -19.553
  -1.537        -19.553
  -1.534        -19.554
  -1.532        -19.555
  -1.530        -19.556
  -1.528        -19.557
  -1.526        -19.558
  -1.524        -19.559
  -1.522        -19.560
  -1.519        -19.561
  -1.517        -19.562
  -1.515        -19.562
  -1.513        -19.563
  -1.511        -19.564
  -1.508        -19.565
  -1.506        -19.566
  -1.504        -19.567
  -1.502        -19.568
  -1.500        -19.569
  -1.498        -19.570
  -1.495        -19.571
  -1.493        -19.572
  -1.491        -19.573
  -1.489        -19.574
  -1.487        -19.575
  -1.484        -19.576
  -1.482        -19.577
  -1.480        -19.577
  -1.478        -19.578
  -1.476        -19.579
  -1.474        -19.580
  -1.472        -19.581
  -1.469        -19.582
  -1.467        -19.583
  -1.465        -19.584
  -1.463        -19.585
  -1.461        -19.586
  -1.458        -19.587
  -1.456        -19.588
  -1.454        -19.589
  -1.452        -19.590
  -1.450        -19.591
  -1.448        -19.592
  -1.445        -19.593
  -1.443        -19.594
  -1.441        -19.595
  -1.439        -19.596
  -1.437        -19.597
  -1.435        -19.598
  -1.432        -19.599
  -1.430        -19.600
  -1.428        -19.601
  -1.426        -19.603
  -1.424        -19.603
  -1.422        -19.605
  -1.419        -19.606
  -1.417        -19.607
  -1.415        -19.608
  -1.413        -19.609
  -1.411        -19.610
  -1.409        -19.611
  -1.406        -19.612
  -1.404        -19.613
  -1.402        -19.614
  -1.400        -19.615
  -1.398        -19.617
  -1.396        -19.618
  -1.393        -19.619
  -1.391        -19.620
  -1.389        -19.621
  -1.387        -19.622
  -1.385        -19.623
  -1.383        -19.624
  -1.380        -19.626
  -1.378        -19.627
  -1.376        -19.628
  -1.374        -19.629
  -1.372        -19.630
  -1.370        -19.632
  -1.367        -19.633
  -1.365        -19.634
  -1.363        -19.635
  -1.361        -19.636
  -1.359        -19.638
  -1.356        -19.639
  -1.354        -19.640
  -1.352        -19.641
  -1.350        -19.643
  -1.348        -19.644
  -1.346        -19.645
  -1.343        -19.646
  -1.341        -19.648
  -1.339        -19.649
  -1.337        -19.650
  -1.335        -19.652
  -1.333        -19.653
  -1.330        -19.654
  -1.328        -19.656
  -1.326        -19.657
  -1.324        -19.658
  -1.322        -19.660
  -1.320        -19.661
  -1.317        -19.662
  -1.315        -19.664
  -1.313        -19.665
  -1.311        -19.667
  -1.309        -19.668
  -1.307        -19.669
  -1.304        -19.671
  -1.302        -19.672
  -1.300        -19.674
  -1.298        -19.675
  -1.296        -19.676
  -1.293        -19.678
  -1.291        -19.679
  -1.289        -19.681
  -1.287        -19.683
  -1.285        -19.684
  -1.283        -19.685
  -1.280        -19.687
  -1.278        -19.688
  -1.276        -19.690
  -1.274        -19.692
  -1.272        -19.693
  -1.270        -19.695
  -1.267        -19.696
  -1.265        -19.698
  -1.263        -19.699
  -1.261        -19.701
  -1.259        -19.702
  -1.257        -19.704
  -1.254        -19.706
  -1.252        -19.707
  -1.250        -19.709
  -1.248        -19.710
  -1.246        -19.712
  -1.243        -19.714
  -1.241        -19.715
  -1.239        -19.717
  -1.237        -19.719
  -1.235        -19.720
  -1.233        -19.722
  -1.231        -19.723
  -1.228        -19.725
  -1.226        -19.727
  -1.224        -19.729
  -1.222        -19.730
  -1.220        -19.732
  -1.217        -19.734
  -1.215        -19.735
  -1.213        -19.737
  -1.211        -19.739
  -1.209        -19.740
  -1.207        -19.742
  -1.204        -19.744
  -1.202        -19.745
  -1.200        -19.747
  -1.198        -19.748
  -1.196        -19.750
  -1.194        -19.752
  -1.191        -19.754
  -1.189        -19.755
  -1.187        -19.757
  -1.185        -19.759
  -1.183        -19.760
  -1.181        -19.762
  -1.178        -19.764
  -1.176        -19.766
  -1.174        -19.767
  -1.172        -19.769
  -1.170        -19.771
  -1.168        -19.772
  -1.165        -19.774
  -1.163        -19.776
  -1.161        -19.777
  -1.159        -19.779
  -1.157        -19.781
  -1.155        -19.783
  -1.152        -19.784
  -1.150        -19.786
  -1.148        -19.788
  -1.146        -19.789
  -1.144        -19.791
  -1.142        -19.793
  -1.139        -19.794
  -1.137        -19.796
  -1.135        -19.798
  -1.133        -19.799
  -1.131        -19.801
  -1.129        -19.802
  -1.126        -19.804
  -1.124        -19.806
  -1.122        -19.807
  -1.120        -19.809
  -1.118        -19.811
  -1.115        -19.812
  -1.113        -19.814
  -1.111        -19.816
  -1.109        -19.817
  -1.107        -19.819
  -1.105        -19.820
  -1.102        -19.822
  -1.100        -19.823
  -1.098        -19.825
  -1.096        -19.827
  -1.094        -19.828
  -1.092        -19.830
  -1.089        -19.831
  -1.087        -19.833
  -1.085        -19.834
  -1.083        -19.836
  -1.081        -19.837
  -1.079        -19.839
  -1.076        -19.840
  -1.074        -19.842
  -1.072        -19.843
  -1.070        -19.844
  -1.068        -19.846
  -1.066        -19.847
  -1.063        -19.849
  -1.061        -19.850
  -1.059        -19.851
  -1.057        -19.853
  -1.055        -19.854
  -1.052        -19.855
  -1.050        -19.857
  -1.048        -19.858
  -1.046        -19.859
  -1.044        -19.861
  -1.042        -19.862
  -1.039        -19.863
  -1.037        -19.865
  -1.035        -19.866
  -1.033        -19.867
  -1.031        -19.869
  -1.029        -19.870
  -1.026        -19.871
  -1.024        -19.872
  -1.022        -19.873
  -1.020        -19.874
  -1.018        -19.876
  -1.016        -19.877
  -1.013        -19.878
  -1.011        -19.879
  -1.009        -19.880
  -1.007        -19.881
  -1.005        -19.882
  -1.003        -19.883
  -1.000        -19.885
  -0.998        -19.886
  -0.996        -19.887
  -0.994        -19.888
  -0.992        -19.889
  -0.990        -19.890
  -0.987        -19.891
  -0.985        -19.892
  -0.983        -19.892
  -0.981        -19.893
  -0.979        -19.894
  -0.977        -19.895
  -0.974        -19.896
  -0.972        -19.897
  -0.970        -19.898
  -0.968        -19.899
  -0.966        -19.900
  -0.963        -19.900
  -0.961        -19.901
  -0.959        -19.902
  -0.957        -19.903
  -0.955        -19.904
  -0.953        -19.904
  -0.950        -19.905
  -0.948        -19.906
  -0.946        -19.907
  -0.944        -19.907
  -0.942        -19.908
  -0.940        -19.908
  -0.937        -19.909
  -0.935        -19.910
  -0.933        -19.910
  -0.931        -19.911
  -0.929        -19.911
  -0.927        -19.912
  -0.924        -19.912
  -0.922        -19.913
  -0.920        -19.913
  -0.918        -19.914
  -0.916        -19.914
  -0.914        -19.915
  -0.911        -19.915
  -0.909        -19.916
  -0.907        -19.916
  -0.905        -19.916
  -0.903        -19.917
  -0.900        -19.917
  -0.898        -19.917
  -0.896        -19.918
  -0.894        -19.918
  -0.892        -19.918
  -0.890        -19.919
  -0.887        -19.919
  -0.885        -19.919
  -0.883        -19.919
  -0.881        -19.920
  -0.879        -19.920
  -0.877        -19.920
  -0.874        -19.920
  -0.872        -19.920
  -0.870        -19.920
  -0.868        -19.921
  -0.866        -19.921
  -0.864        -19.921
  -0.862        -19.921
  -0.859        -19.921
  -0.857        -19.921
  -0.855        -19.921
  -0.853        -19.921
  -0.851        -19.921
  -0.848        -19.921
  -0.846        -19.921
  -0.844        -19.921
  -0.842        -19.921
  -0.840        -19.921
  -0.838        -19.920
  -0.835        -19.920
  -0.833        -19.920
  -0.831        -19.920
  -0.829        -19.920
  -0.827        -19.919
  -0.825        -19.919
  -0.822        -19.919
  -0.820        -19.919
  -0.818        -19.919
  -0.816        -19.918
  -0.814        -19.918
  -0.812        -19.918
  -0.809        -19.917
  -0.807        -19.917
  -0.805        -19.917
  -0.803        -19.917
  -0.801        -19.916
  -0.799        -19.916
  -0.796        -19.916
  -0.794        -19.915
  -0.792        -19.915
  -0.790        -19.914
  -0.788        -19.914
  -0.785        -19.914
  -0.783        -19.913
  -0.781        -19.913
  -0.779        -19.912
  -0.777        -19.912
  -0.774        -19.911
  -0.772        -19.911
  -0.770        -19.910
  -0.768        -19.910
  -0.766        -19.909
  -0.764        -19.908
  -0.762        -19.908
  -0.759        -19.908
  -0.757        -19.907
  -0.755        -19.906
  -0.753        -19.906
  -0.751        -19.905
  -0.748        -19.904
  -0.746        -19.903
  -0.744        -19.903
  -0.742        -19.902
  -0.740        -19.902
  -0.738        -19.901
  -0.736        -19.900
  -0.733        -19.899
  -0.731        -19.899
  -0.729        -19.898
  -0.727        -19.897
  -0.725        -19.897
  -0.723        -19.896
  -0.720        -19.895
  -0.718        -19.894
  -0.716        -19.894
  -0.714        -19.893
  -0.712        -19.892
  -0.709        -19.891
  -0.707        -19.890
  -0.705        -19.890
  -0.703        -19.889
  -0.701        -19.888
  -0.699        -19.887
  -0.697        -19.886
  -0.694        -19.885
  -0.692        -19.885
  -0.690        -19.884
  -0.688        -19.883
  -0.685        -19.882
  -0.683        -19.881
  -0.681        -19.880
  -0.679        -19.879
  -0.677        -19.878
  -0.675        -19.877
  -0.673        -19.876
  -0.670        -19.875
  -0.668        -19.874
  -0.666        -19.873
  -0.664        -19.872
  -0.662        -19.871
  -0.659        -19.871
  -0.657        -19.869
  -0.655        -19.869
  -0.653        -19.867
  -0.651        -19.866
  -0.649        -19.865
  -0.647        -19.864
  -0.644        -19.863
  -0.642        -19.862
  -0.640        -19.861
  -0.638        -19.860
  -0.636        -19.859
  -0.633        -19.858
  -0.631        -19.857
  -0.629        -19.856
  -0.627        -19.855
  -0.625        -19.854
  -0.623        -19.853
  -0.621        -19.851
  -0.618        -19.850
  -0.616        -19.850
  -0.614        -19.848
  -0.612        -19.847
  -0.610        -19.846
  -0.608        -19.845
  -0.605        -19.844
  -0.603        -19.843
  -0.601        -19.842
  -0.599        -19.841
  -0.596        -19.840
  -0.594        -19.839
  -0.592        -19.837
  -0.590        -19.836
  -0.588        -19.835
  -0.586        -19.834
  -0.584        -19.833
  -0.581        -19.832
  -0.579        -19.830
  -0.577        -19.829
  -0.575        -19.828
  -0.573        -19.827
  -0.571        -19.826
  -0.568        -19.825
  -0.566        -19.823
  -0.564        -19.822
  -0.562        -19.821
  -0.560        -19.820
  -0.557        -19.819
  -0.555        -19.818
  -0.553        -19.817
  -0.551        -19.815
  -0.549        -19.815
  -0.547        -19.814
  -0.544        -19.812
  -0.542        -19.811
  -0.540        -19.810
  -0.538        -19.809
  -0.536        -19.808
  -0.534        -19.807
  -0.531        -19.806
  -0.529        -19.804
  -0.527        -19.803
  -0.525        -19.802
  -0.523        -19.801
  -0.521        -19.800
  -0.518        -19.799
  -0.516        -19.798
  -0.514        -19.797
  -0.512        -19.796
  -0.510        -19.795
  -0.507        -19.794
  -0.505        -19.792
  -0.503        -19.791
  -0.501        -19.790
  -0.499        -19.789
  -0.497        -19.788
  -0.495        -19.787
  -0.492        -19.786
  -0.490        -19.785
  -0.488        -19.784
  -0.486        -19.783
  -0.484        -19.782
  -0.482        -19.780
  -0.479        -19.780
  -0.477        -19.778
  -0.475        -19.778
  -0.473        -19.776
  -0.471        -19.775
  -0.468        -19.774
  -0.466        -19.773
  -0.464        -19.772
  -0.462        -19.771
  -0.460        -19.770
  -0.458        -19.769
  -0.455        -19.768
  -0.453        -19.767
  -0.451        -19.766
  -0.449        -19.765
  -0.447        -19.764
  -0.445        -19.763
  -0.442        -19.762
  -0.440        -19.761
  -0.438        -19.760
  -0.436        -19.759
  -0.434        -19.758
  -0.432        -19.757
  -0.429        -19.756
  -0.427        -19.755
  -0.425        -19.754
  -0.423        -19.753
  -0.421        -19.752
  -0.419        -19.751
  -0.416        -19.750
  -0.414        -19.749
  -0.412        -19.748
  -0.410        -19.747
  -0.408        -19.746
  -0.405        -19.746
  -0.403        -19.744
  -0.401        -19.744
  -0.399        -19.743
  -0.397        -19.742
  -0.395        -19.741
  -0.392        -19.740
  -0.390        -19.739
  -0.388        -19.738
  -0.386        -19.737
  -0.384        -19.737
  -0.382        -19.736
  -0.379        -19.735
  -0.377        -19.735
  -0.375        -19.734
  -0.373        -19.733
  -0.371        -19.732
  -0.369        -19.732
  -0.366        -19.731
  -0.364        -19.730
  -0.362        -19.729
  -0.360        -19.729
  -0.358        -19.728
  -0.356        -19.727
  -0.353        -19.726
  -0.351        -19.726
  -0.349        -19.725
  -0.347        -19.725
  -0.345        -19.724
  -0.343        -19.723
  -0.340        -19.722
  -0.338        -19.722
  -0.336        -19.721
  -0.334        -19.721
  -0.332        -19.720
  -0.330        -19.720
  -0.327        -19.719
  -0.325        -19.718
  -0.323        -19.718
  -0.321        -19.717
  -0.319        -19.717
  -0.316        -19.716
  -0.314        -19.716
  -0.312        -19.715
  -0.310        -19.715
  -0.308        -19.714
  -0.306        -19.714
  -0.303        -19.713
  -0.301        -19.713
  -0.299        -19.712
  -0.297        -19.712
  -0.295        -19.712
  -0.293        -19.711
  -0.290        -19.711
  -0.288        -19.711
  -0.286        -19.710
  -0.284        -19.710
  -0.282        -19.710
  -0.280        -19.710
  -0.277        -19.709
  -0.275        -19.709
  -0.273        -19.709
  -0.271        -19.709
  -0.269        -19.709
  -0.267        -19.708
  -0.264        -19.708
  -0.262        -19.708
  -0.260        -19.708
  -0.258        -19.708
  -0.256        -19.707
  -0.253        -19.707
  -0.251        -19.707
  -0.249        -19.707
  -0.247        -19.707
  -0.245        -19.707
  -0.243        -19.707
  -0.241        -19.707
  -0.238        -19.707
  -0.236        -19.707
  -0.234        -19.707
  -0.232        -19.707
  -0.230        -19.707
  -0.227        -19.707
  -0.225        -19.707
  -0.223        -19.707
  -0.221        -19.707
  -0.219        -19.706
  -0.217        -19.707
  -0.214        -19.707
  -0.212        -19.707
  -0.210        -19.707
  -0.208        -19.707
  -0.206        -19.707
  -0.204        -19.707
  -0.201        -19.707
  -0.199        -19.707
  -0.197        -19.707
  -0.195        -19.708
  -0.193        -19.708
  -0.191        -19.708
  -0.188        -19.708
  -0.186        -19.708
  -0.184        -19.708
  -0.182        -19.708
  -0.180        -19.709
  -0.178        -19.709
  -0.175        -19.709
  -0.173        -19.709
  -0.171        -19.710
  -0.169        -19.710
  -0.167        -19.710
  -0.164        -19.711
  -0.162        -19.711
  -0.160        -19.711
  -0.158        -19.711
  -0.156        -19.712
  -0.154        -19.712
  -0.151        -19.712
  -0.149        -19.712
  -0.147        -19.713
  -0.145        -19.713
  -0.143        -19.713
  -0.141        -19.714
  -0.138        -19.714
  -0.136        -19.714
  -0.134        -19.715
  -0.132        -19.715
  -0.130        -19.715
  -0.128        -19.716
  -0.125        -19.716
  -0.123        -19.717
  -0.121        -19.717
  -0.119        -19.717
  -0.117        -19.718
  -0.115        -19.718
  -0.112        -19.718
  -0.110        -19.718
  -0.108        -19.719
  -0.106        -19.719
  -0.104        -19.719
  -0.102        -19.720
  -0.099        -19.720
  -0.097        -19.720
  -0.095        -19.721
  -0.093        -19.721
  -0.091        -19.721
  -0.089        -19.721
  -0.086        -19.722
  -0.084        -19.722
  -0.082        -19.722
  -0.080        -19.722
  -0.078        -19.723
  -0.075        -19.723
  -0.073        -19.723
  -0.071        -19.723
  -0.069        -19.724
  -0.067        -19.724
  -0.065        -19.724
  -0.063        -19.724
  -0.060        -19.725
  -0.058        -19.725
  -0.056        -19.725
  -0.054        -19.726
  -0.052        -19.726
  -0.049        -19.726
  -0.047        -19.726
  -0.045        -19.727
  -0.043        -19.727
  -0.041        -19.727
  -0.039        -19.727
  -0.036        -19.728
  -0.034        -19.728
  -0.032        -19.728
  -0.030        -19.729
  -0.028        -19.729
  -0.026        -19.729
  -0.023        -19.730
  -0.021        -19.730
  -0.019        -19.730
  -0.017        -19.731
  -0.015        -19.731
  -0.013        -19.731
  -0.010        -19.731
  -0.008        -19.732
  -0.006        -19.732
  -0.004        -19.732
  -0.002        -19.733
   0.000        -19.733
   0.003        -19.733
   0.005        -19.734
   0.007        -19.734
   0.009        -19.734
   0.011        -19.735
   0.013        -19.735
   0.016        -19.735
   0.018        -19.736
   0.020        -19.736
   0.022        -19.736
   0.024        -19.737
   0.027        -19.737
   0.029        -19.737
   0.031        -19.738
   0.033        -19.738
   0.035        -19.738
   0.037        -19.739
   0.040        -19.739
   0.042        -19.740
   0.044        -19.740
   0.046        -19.740
   0.048        -19.741
   0.050        -19.741
   0.053        -19.741
   0.055        -19.742
   0.057        -19.742
   0.059        -19.743
   0.061        -19.743
   0.063        -19.743
   0.066        -19.744
   0.068        -19.744
   0.070        -19.745
   0.072        -19.745
   0.074        -19.745
   0.076        -19.746
   0.079        -19.746
   0.081        -19.746
   0.083        -19.747
   0.085        -19.747
   0.087        -19.747
   0.089        -19.748
   0.092        -19.748
   0.094        -19.748
   0.096        -19.749
   0.098        -19.749
   0.100        -19.750
   0.103        -19.750
   0.105        -19.751
   0.107        -19.751
   0.109        -19.752
   0.111        -19.752
   0.113        -19.753
   0.116        -19.753
   0.118        -19.754
   0.120        -19.754
   0.122        -19.755
   0.124        -19.755
   0.126        -19.755
   0.128        -19.756
   0.131        -19.756
   0.133        -19.757
   0.135        -19.757
   0.137        -19.758
   0.139        -19.758
   0.142        -19.759
   0.144        -19.759
   0.146        -19.759
   0.148        -19.760
   0.150        -19.760
   0.153        -19.761
   0.155        -19.761
   0.157        -19.762
   0.159        -19.762
   0.161        -19.763
   0.163        -19.763
   0.165        -19.764
   0.168        -19.764
   0.170        -19.765
   0.172        -19.765
   0.174        -19.766
   0.176        -19.766
   0.178        -19.767
   0.181        -19.767
   0.183        -19.768
   0.185        -19.768
   0.187        -19.769
   0.189        -19.770
   0.192        -19.770
   0.194        -19.771
   0.196        -19.771
   0.198        -19.772
   0.200        -19.772
   0.202        -19.773
   0.205        -19.773
   0.207        -19.774
   0.209        -19.774
   0.211        -19.775
   0.213        -19.776
   0.215        -19.776
   0.218        -19.777
   0.220        -19.778
   0.222        -19.778
   0.224        -19.779
   0.226        -19.780
   0.229        -19.781
   0.231        -19.781
   0.233        -19.782
   0.235        -19.783
   0.237        -19.784
   0.239        -19.785
   0.241        -19.785
   0.244        -19.786
   0.246        -19.787
   0.248        -19.788
   0.250        -19.789
   0.252        -19.790
   0.254        -19.791
   0.257        -19.792
   0.259        -19.793
   0.261        -19.794
   0.263        -19.795
   0.265        -19.796
   0.267        -19.797
   0.270        -19.797
   0.272        -19.799
   0.274        -19.800
   0.276        -19.801
   0.278        -19.801
   0.281        -19.803
   0.283        -19.804
   0.285        -19.804
   0.287        -19.806
   0.289        -19.807
   0.291        -19.808
   0.293        -19.809
   0.296        -19.810
   0.298        -19.811
   0.300        -19.812
   0.302        -19.813
   0.305        -19.814
   0.307        -19.815
   0.309        -19.816
   0.311        -19.817
   0.313        -19.818
   0.315        -19.819
   0.318        -19.821
   0.320        -19.822
   0.322        -19.823
   0.324        -19.824
   0.326        -19.825
   0.328        -19.826
   0.330        -19.827
   0.333        -19.829
   0.335        -19.830
   0.337        -19.831
   0.339        -19.832
   0.341        -19.833
   0.344        -19.834
   0.346        -19.835
   0.348        -19.837
   0.350        -19.838
   0.352        -19.839
   0.354        -19.840
   0.356        -19.841
   0.359        -19.842
   0.361        -19.844
   0.363        -19.845
   0.365        -19.846
   0.367        -19.847
   0.369        -19.848
   0.372        -19.849
   0.374        -19.851
   0.376        -19.852
   0.378        -19.853
   0.380        -19.854
   0.383        -19.855
   0.385        -19.856
   0.387        -19.858
   0.389        -19.859
   0.391        -19.860
   0.393        -19.861
   0.396        -19.863
   0.398        -19.863
   0.400        -19.865
   0.402        -19.866
   0.404        -19.867
   0.406        -19.868
   0.409        -19.870
   0.411        -19.871
   0.413        -19.872
   0.415        -19.874
   0.417        -19.875
   0.420        -19.876
   0.422        -19.877
   0.424        -19.879
   0.426        -19.880
   0.428        -19.882
   0.430        -19.883
   0.432        -19.884
   0.435        -19.885
   0.437        -19.886
   0.439        -19.888
   0.441        -19.889
   0.443        -19.891
   0.446        -19.892
   0.448        -19.893
   0.450        -19.895
   0.452        -19.896
   0.454        -19.897
   0.456        -19.898
   0.459        -19.900
   0.461        -19.901
   0.463        -19.903
   0.465        -19.904
   0.467        -19.905
   0.469        -19.907
   0.472        -19.908
   0.474        -19.909
   0.476        -19.910
   0.478        -19.912
   0.480        -19.913
   0.482        -19.914
   0.485        -19.915
   0.487        -19.917
   0.489        -19.918
   0.491        -19.918
   0.493        -19.919
   0.495        -19.920
   0.498        -19.920
   0.500        -19.921
   0.502        -19.922
   0.504        -19.922
   0.506        -19.923
   0.510        -19.924
   0.512        -19.925
   0.513        -19.925
   0.515        -19.925
   0.517        -19.926
   0.519        -19.926
   0.522        -19.926
   0.524        -19.927
   0.526        -19.927
   0.528        -19.928
   0.530        -19.928
   0.532        -19.928
   0.535        -19.929
   0.537        -19.929
   0.539        -19.930
   0.541        -19.930
   0.543        -19.931
   0.545        -19.931
   0.548        -19.932
   0.550        -19.932
   0.552        -19.932
   0.554        -19.933
   0.556        -19.933
   0.558        -19.934
   0.561        -19.934
   0.563        -19.935
   0.565        -19.935
   0.567        -19.936
   0.569        -19.936
   0.572        -19.937
   0.574        -19.937
   0.576        -19.938
   0.578        -19.939
   0.580        -19.939
   0.582        -19.940
   0.585        -19.941
   0.587        -19.941
   0.589        -19.942
   0.591        -19.942
   0.593        -19.943
   0.595        -19.944
   0.598        -19.944
   0.600        -19.945
   0.602        -19.946
   0.604        -19.947
   0.606        -19.947
   0.608        -19.948
   0.611        -19.949
   0.613        -19.950
   0.615        -19.950
   0.617        -19.951
   0.619        -19.952
   0.621        -19.953
   0.624        -19.954
   0.626        -19.955
   0.628        -19.956
   0.630        -19.956
   0.632        -19.957
   0.634        -19.958
   0.637        -19.959
   0.639        -19.960
   0.641        -19.961
   0.643        -19.962
   0.645        -19.963
   0.647        -19.964
   0.650        -19.965
   0.652        -19.966
   0.654        -19.967
   0.656        -19.968
   0.658        -19.969
   0.660        -19.970
   0.663        -19.971
   0.665        -19.972
   0.667        -19.973
   0.669        -19.974
   0.671        -19.975
   0.673        -19.976
   0.676        -19.977
   0.678        -19.978
   0.680        -19.980
   0.682        -19.981
   0.684        -19.982
   0.687        -19.983
   0.689        -19.985
   0.691        -19.986
   0.693        -19.987
   0.695        -19.989
   0.697        -19.990
   0.700        -19.991
   0.702        -19.993
   0.704        -19.995
   0.706        -19.996
   0.708        -19.997
   0.710        -19.999
   0.713        -20.001
   0.715        -20.002
   0.717        -20.004
   0.719        -20.005
   0.721        -20.007
   0.723        -20.009
   0.726        -20.011
   0.728        -20.013
   0.730        -20.015
   0.732        -20.016
   0.734        -20.018
   0.736        -20.020
   0.739        -20.022
   0.741        -20.024
   0.743        -20.026
   0.745        -20.028
   0.747        -20.030
   0.750        -20.032
   0.752        -20.034
   0.754        -20.036
   0.756        -20.038
   0.758        -20.040
   0.760        -20.042
   0.762        -20.045
   0.765        -20.047
   0.767        -20.049
   0.769        -20.051
   0.771        -20.054
   0.773        -20.056
   0.776        -20.058
   0.778        -20.061
   0.780        -20.063
   0.782        -20.066
   0.784        -20.068
   0.786        -20.071
   0.789        -20.074
   0.791        -20.076
   0.793        -20.079
   0.795        -20.082
   0.797        -20.085
   0.799        -20.087
   0.802        -20.090
   0.804        -20.093
   0.806        -20.096
   0.808        -20.099
   0.810        -20.103
   0.812        -20.106
   0.815        -20.109
   0.817        -20.112
   0.819        -20.115
   0.821        -20.118
   0.823        -20.122
   0.825        -20.125
   0.828        -20.129
   0.830        -20.132
   0.832        -20.136
   0.834        -20.139
   0.836        -20.143
   0.838        -20.146
   0.841        -20.150
   0.843        -20.154
   0.845        -20.157
   0.847        -20.161
   0.849        -20.165
   0.852        -20.169
   0.854        -20.173
   0.856        -20.177
   0.858        -20.181
   0.860        -20.185
   0.862        -20.189
   0.865        -20.193
   0.867        -20.197
   0.869        -20.201
   0.871        -20.206
   0.873        -20.210
   0.875        -20.215
   0.878        -20.219
   0.880        -20.223
   0.882        -20.228
   0.884        -20.232
   0.886        -20.237
   0.888        -20.242
   0.891        -20.247
   0.893        -20.252
   0.895        -20.257
   0.897        -20.262
   0.899        -20.267
   0.901        -20.273
   0.904        -20.277
   0.906        -20.283
   0.908        -20.289
   0.910        -20.295
   0.912        -20.300
   0.915        -20.306
   0.917        -20.312
   0.919        -20.318
   0.921        -20.323
   0.923        -20.329
   0.925        -20.335
   0.928        -20.342
   0.930        -20.348
   0.932        -20.355
   0.934        -20.362
   0.936        -20.368
   0.938        -20.375
   0.941        -20.382
   0.943        -20.389
   0.945        -20.395
   0.947        -20.402
   0.949        -20.411
   0.951        -20.419
   0.954        -20.427
   0.956        -20.436
   0.958        -20.444
   0.960        -20.452
   0.962        -20.461
   0.964        -20.469
   0.967        -20.477
   0.969        -20.486
   0.971        -20.493
   0.973        -20.501
   0.975        -20.509
   0.977        -20.516
   0.980        -20.524
   0.982        -20.532
   0.984        -20.540
   0.986        -20.547
   0.988        -20.556
   0.990        -20.565
   0.993        -20.573
   0.995        -20.582
   0.997        -20.591
   0.999        -20.599
   1.001        -20.608
   1.004        -20.617
   1.006        -20.626
   1.008        -20.634
   1.010        -20.644
   1.012        -20.658
   1.014        -20.671
   1.017        -20.685
   1.019        -20.698
   1.021        -20.711
   1.023        -20.725
   1.025        -20.738
   1.027        -20.752
   1.030        -20.766
   1.032        -20.782
   1.034        -20.800
   1.036        -20.818
   1.038        -20.836
   1.040        -20.854
   1.043        -20.873
   1.045        -20.891
   1.047        -20.909
   1.049        -20.927
   1.051        -20.946
   1.053        -20.972
   1.056        -20.998
   1.058        -21.025
   1.060        -21.052
   1.062        -21.078
   1.064        -21.105
   1.066        -21.131
   1.069        -21.158
   1.071        -21.185
   1.073        -21.222
   1.075        -21.268
   1.077        -21.315
   1.079        -21.362
   1.082        -21.409
   1.084        -21.456
   1.086        -21.503
   1.088        -21.550
   1.090        -21.597
   1.093        -21.642
   1.095        -21.674
   1.097        -21.701
   1.099        -21.729
   1.101        -21.757
   1.103        -21.784
   1.106        -21.812
   1.108        -21.840
   1.110        -21.867
   1.112        -21.898
   1.114        -21.916
   1.117        -21.919
   1.119        -21.922
   1.121        -21.925
   1.123        -21.927
   1.125        -21.930
   1.127        -21.933
   1.129        -21.936
   1.131        -21.939
   1.134        -21.942
   1.136        -21.945
   1.138        -21.948
   1.140        -21.951
   1.143        -21.954
   1.145        -21.957
   1.147        -21.960
   1.149        -21.963
   1.151        -21.965
   1.153        -21.969
   1.155        -21.971
   1.158        -21.975
   1.160        -21.977
   1.162        -21.980
   1.164        -21.983
   1.166        -21.986
   1.169        -21.989
   1.171        -21.992
   1.173        -21.995
   1.175        -21.998
   1.177        -22.001
   1.180        -22.005
   1.181        -22.007
   1.184        -22.011
   1.186        -22.014
   1.188        -22.017
   1.190        -22.020
   1.192        -22.023
   1.195        -22.026
   1.197        -22.030
   1.199        -22.033
   1.201        -22.036
   1.203        -22.040
   1.205        -22.043
   1.208        -22.046
   1.210        -22.050
   1.212        -22.053
   1.214        -22.056
   1.216        -22.059
   1.218        -22.063
   1.220        -22.066
   1.223        -22.070
   1.225        -22.073
   1.227        -22.077
   1.229        -22.080
   1.232        -22.084
   1.234        -22.087
   1.236        -22.090
   1.238        -22.094
   1.240        -22.098
   1.242        -22.101
   1.245        -22.105
   1.247        -22.108
   1.249        -22.112
   1.251        -22.116
   1.253        -22.119
   1.255        -22.123
   1.258        -22.127
   1.260        -22.131
   1.262        -22.135
   1.264        -22.139
   1.266        -22.142
   1.268        -22.146
   1.270        -22.150
   1.273        -22.154
   1.275        -22.158
   1.277        -22.162
   1.279        -22.166
   1.281        -22.170
   1.284        -22.174
   1.286        -22.178
   1.288        -22.183
   1.290        -22.187
   1.292        -22.191
   1.294        -22.195
   1.297        -22.199
   1.299        -22.203
   1.301        -22.208
   1.303        -22.212
   1.305        -22.217
   1.307        -22.221
   1.310        -22.225
   1.312        -22.230
   1.314        -22.234
   1.316        -22.239
   1.318        -22.243
   1.320        -22.248
   1.323        -22.253
   1.325        -22.257
   1.327        -22.262
   1.329        -22.266
   1.331        -22.271
   1.334        -22.276
   1.336        -22.281
   1.338        -22.285
   1.340        -22.290
   1.342        -22.295
   1.344        -22.300
   1.346        -22.304
   1.349        -22.309
   1.351        -22.314
   1.353        -22.319
   1.355        -22.324
   1.357        -22.329
   1.359        -22.334
   1.362        -22.339
   1.364        -22.344
   1.366        -22.348
   1.368        -22.353
   1.370        -22.358
   1.373        -22.363
   1.375        -22.368
   1.377        -22.373
   1.379        -22.378
   1.381        -22.383
   1.383        -22.388
   1.386        -22.392
   1.388        -22.397
   1.390        -22.402
   1.392        -22.406
   1.394        -22.411
   1.397        -22.416
   1.399        -22.420
   1.401        -22.425
   1.403        -22.430
   1.405        -22.435
   1.407        -22.440
   1.410        -22.445
   1.412        -22.450
   1.414        -22.455
   1.416        -22.461
   1.418        -22.466
   1.420        -22.471
   1.423        -22.476
   1.425        -22.481
   1.427        -22.487
   1.429        -22.493
   1.431        -22.498
   1.433        -22.504
   1.436        -22.510
   1.438        -22.515
   1.440        -22.521
   1.442        -22.526
   1.444        -22.532
   1.446        -22.538
   1.449        -22.544
   1.451        -22.550
   1.453        -22.556
   1.455        -22.562
   1.457        -22.568
   1.460        -22.574
   1.462        -22.580
   1.464        -22.586
   1.466        -22.592
   1.468        -22.598
   1.470        -22.605
   1.472        -22.611
   1.475        -22.617
   1.477        -22.624
   1.479        -22.630
   1.481        -22.636
   1.483        -22.643
   1.486        -22.649
   1.488        -22.656
   1.490        -22.662
   1.492        -22.669
   1.494        -22.676
   1.496        -22.683
   1.498        -22.689
   1.501        -22.696
   1.503        -22.703
   1.505        -22.710
   1.507        -22.716
   1.509        -22.724
   1.512        -22.730
   1.514        -22.737
   1.516        -22.744
   1.518        -22.751
   1.520        -22.758
   1.522        -22.765
   1.525        -22.772
   1.527        -22.779
   1.529        -22.786
   1.531        -22.793
   1.533        -22.801
   1.535        -22.808
   1.538        -22.815
   1.540        -22.822
   1.542        -22.830
   1.544        -22.837
   1.546        -22.844
   1.549        -22.852
   1.551        -22.859
   1.553        -22.867
   1.555        -22.875
   1.557        -22.882
   1.559        -22.890
   1.561        -22.898
   1.564        -22.905
   1.566        -22.913
   1.568        -22.921
   1.570        -22.929
   1.572        -22.937
   1.575        -22.946
   1.577        -22.954
   1.579        -22.963
   1.581        -22.971
   1.583        -22.980
   1.585        -22.989
   1.588        -22.997
   1.590        -23.032
   1.592        -23.092
   1.594        -23.101
   1.596        -23.110
   1.598        -23.119
   1.601        -23.128
   1.603        -23.137
   1.605        -23.146
   1.607        -23.155
   1.609        -23.164
   1.611        -23.173
   1.614        -23.183
   1.616        -23.192
   1.618        -23.202
   1.620        -23.211
   1.622        -23.221
   1.624        -23.231
   1.627        -23.240
   1.629        -23.250
   1.631        -23.259
   1.633        -23.269
   1.635        -23.279
   1.637        -23.289
   1.640        -23.299
   1.642        -23.309
   1.644        -23.319
   1.646        -23.329
   1.648        -23.339
   1.651        -23.349
   1.653        -23.359
   1.655        -23.370
   1.657        -23.380
   1.659        -23.390
   1.661        -23.400
   1.664        -23.411
   1.666        -23.421
   1.668        -23.431
   1.670        -23.442
   1.672        -23.452
   1.674        -23.462
   1.676        -23.473
   1.679        -23.484
   1.681        -23.495
   1.683        -23.505
   1.685        -23.516
   1.687        -23.527
   1.690        -23.538
   1.692        -23.549
   1.694        -23.559
   1.696        -23.571
   1.699        -23.586
   1.701        -23.598
   1.703        -23.610
   1.705        -23.621
   1.707        -23.634
   1.709        -23.647
   1.711        -23.659
   1.714        -23.673
   1.716        -23.681
   1.718        -23.698
   1.720        -23.716
   1.722        -23.737
   1.724        -23.758
   1.727        -23.780
   1.729        -23.801
   1.731        -23.822
   1.733        -23.844
   1.735        -23.865
   1.737        -23.882
   1.739        -23.892
   1.742        -23.902
   1.744        -23.912
   1.746        -23.922
   1.748        -23.932
   1.750        -23.942
   1.753        -23.952
   1.755        -23.962
   1.757        -23.972
   1.759        -23.977
   1.761        -23.980
   1.763        -23.984
   1.766        -23.987
   1.768        -23.991
   1.770        -23.995
   1.772        -23.998
   1.774        -24.002
   1.776        -24.006
   1.779        -24.009
   1.781        -24.010
   1.783        -24.011
   1.785        -24.013
   1.787        -24.014
   1.789        -24.015
   1.792        -24.016
   1.794        -24.017
   1.796        -24.019
   1.798        -24.020
   1.800        -24.021
   1.802        -24.021
   1.805        -24.022
   1.807        -24.023
   1.809        -24.023
   1.811        -24.024
   1.813        -24.024
   1.816        -24.025
   1.818        -24.025
   1.820        -24.026
   1.822        -24.026
   1.824        -24.027
   1.826        -24.027
   1.829        -24.028
   1.831        -24.028
   1.833        -24.029
   1.835        -24.029
   1.837        -24.029
   1.839        -24.030
   1.842        -24.030
   1.844        -24.031
   1.846        -24.031
   1.848        -24.032
   1.850        -24.032
   1.852        -24.033
   1.855        -24.033
   1.857        -24.034
   1.859        -24.034
   1.861        -24.034
   1.863        -24.035
   1.865        -24.035
   1.868        -24.036
   1.870        -24.036
   1.872        -24.037
   1.874        -24.037
   1.876        -24.038
   1.878        -24.038
   1.881        -24.039
   1.883        -24.040
   1.885        -24.040
   1.887        -24.041
   1.889        -24.041
   1.891        -24.042
   1.894        -24.043
   1.896        -24.043
   1.898        -24.044
   1.900        -24.044
   1.902        -24.045
   1.905        -24.046
   1.907        -24.046
   1.909        -24.047
   1.911        -24.048
   1.913        -24.048
   1.915        -24.049
   1.918        -24.050
   1.920        -24.050
   1.922        -24.051
   1.924        -24.052
   1.926        -24.052
   1.928        -24.053
   1.931        -24.054
   1.933        -24.055
   1.935        -24.055
   1.937        -24.056
   1.939        -24.057
   1.941        -24.057
   1.944        -24.058
   1.946        -24.059
   1.948        -24.060
   1.950        -24.060
   1.952        -24.061
   1.954        -24.062
   1.957        -24.063
   1.959        -24.064
   1.961        -24.064
   1.963        -24.065
   1.965        -24.066
   1.967        -24.067
   1.970        -24.067
   1.972        -24.068
   1.974        -24.069
   1.976        -24.070
   1.978        -24.071
   1.980        -24.071
   1.983        -24.072
   1.985        -24.073
   1.987        -24.074
   1.989        -24.075
   1.991        -24.075
   1.993        -24.076
   1.996        -24.077
   1.998        -24.078
   2.000        -24.079
   2.002        -24.079
   2.004        -24.080
   2.007        -24.081
   2.009        -24.082
   2.011        -24.083
   2.013        -24.083
   2.015        -24.084
   2.017        -24.085
   2.020        -24.086
   2.022        -24.086
   2.024        -24.087
   2.026        -24.088
   2.028        -24.089
   2.030        -24.089
   2.033        -24.090
   2.035        -24.091
   2.037        -24.092
   2.039        -24.092
   2.041        -24.093
   2.043        -24.094
   2.046        -24.095
   2.048        -24.096
   2.050        -24.096
   2.052        -24.097
   2.054        -24.098
   2.056        -24.098
   2.059        -24.099
   2.061        -24.100
   2.063        -24.100
   2.065        -24.101
   2.067        -24.102
   2.069        -24.102
   2.072        -24.103
   2.074        -24.104
   2.076        -24.104
   2.078        -24.105
   2.080        -24.105
   2.083        -24.106
   2.085        -24.107
   2.087        -24.107
   2.089        -24.108
   2.091        -24.108
   2.093        -24.109
   2.096        -24.110
   2.098        -24.110
   2.100        -24.111
   2.102        -24.111
   2.104        -24.112
   2.106        -24.112
   2.109        -24.113
   2.111        -24.113
   2.113        -24.114
   2.115        -24.114
   2.117        -24.114
   2.120        -24.115
   2.122        -24.115
   2.124        -24.116
   2.126        -24.116
   2.128        -24.116
   2.130        -24.117
   2.133        -24.118
   2.135        -24.118
   2.137        -24.118
   2.139        -24.118
   2.141        -24.119
   2.143        -24.119
   2.145        -24.119
   2.148        -24.120
   2.150        -24.120
   2.152        -24.121
   2.154        -24.121
   2.157        -24.121
   2.158        -24.122
   2.161        -24.122
   2.163        -24.122
   2.165        -24.123
   2.167        -24.123
   2.169        -24.123
   2.172        -24.124
   2.174        -24.124
   2.176        -24.124
   2.178        -24.124
   2.180        -24.125
   2.183        -24.125
   2.185        -24.125
   2.187        -24.125
   2.189        -24.126
   2.191        -24.126
   2.193        -24.126
   2.195        -24.127
   2.197        -24.127
   2.200        -24.127
   2.202        -24.128
   2.204        -24.128
   2.206        -24.128
   2.208        -24.128
   2.211        -24.128
   2.213        -24.129
   2.215        -24.129
   2.217        -24.129
   2.219        -24.130
   2.221        -24.130
   2.224        -24.130
   2.226        -24.130
   2.228        -24.131
   2.230        -24.131
   2.232        -24.131
   2.235        -24.131
   2.237        -24.132
   2.239        -24.132
   2.241        -24.132
   2.243        -24.133
   2.245        -24.133
   2.247        -24.133
   2.250        -24.133
   2.252        -24.134
   2.254        -24.134
   2.256        -24.134
   2.259        -24.135
   2.261        -24.135
   2.263        -24.135
   2.265        -24.136
   2.267        -24.136
   2.269        -24.137
   2.271        -24.137
   2.274        -24.137
   2.276        -24.137
   2.278        -24.138
   2.280        -24.138
   2.282        -24.139
   2.284        -24.139
   2.287        -24.140
   2.289        -24.140
   2.291        -24.141
   2.293        -24.141
   2.295        -24.141
   2.297        -24.142
   2.299        -24.142
   2.302        -24.143
   2.304        -24.144
   2.306        -24.144
   2.308        -24.145
   2.310        -24.145
   2.313        -24.146
   2.315        -24.147
   2.317        -24.147
   2.319        -24.148
   2.321        -24.149
   2.323        -24.149
   2.326        -24.150
   2.328        -24.151
   2.330        -24.152
   2.332        -24.153
   2.334        -24.153
   2.337        -24.154
   2.339        -24.155
   2.341        -24.156
   2.343        -24.157
   2.345        -24.157
   2.347        -24.159
   2.349        -24.159
   2.352        -24.161
   2.354        -24.162
   2.356        -24.163
   2.358        -24.164
   2.360        -24.165
   2.363        -24.166
   2.365        -24.167
   2.367        -24.168
   2.369        -24.170
   2.371        -24.171
   2.374        -24.172
   2.376        -24.173
   2.378        -24.175
   2.380        -24.176
   2.382        -24.177
   2.384        -24.179
   2.386        -24.180
   2.389        -24.182
   2.391        -24.184
   2.393        -24.185
   2.395        -24.187
   2.397        -24.188
   2.400        -24.190
   2.402        -24.191
   2.404        -24.193
   2.406        -24.195
   2.408        -24.197
   2.410        -24.199
   2.413        -24.200
   2.415        -24.202
   2.417        -24.204
   2.419        -24.206
   2.421        -24.208
   2.423        -24.210
   2.425        -24.212
   2.428        -24.214
   2.430        -24.216
   2.432        -24.218
   2.434        -24.220
   2.436        -24.222
   2.439        -24.224
   2.441        -24.226
   2.443        -24.229
   2.445        -24.231
   2.447        -24.233
   2.449        -24.235
   2.452        -24.238
   2.454        -24.240
   2.456        -24.242
   2.458        -24.245
   2.460        -24.247
   2.462        -24.249
   2.465        -24.252
   2.467        -24.254
   2.469        -24.257
   2.471        -24.259
   2.473        -24.262
   2.475        -24.265
   2.478        -24.267
   2.480        -24.270
   2.482        -24.272
   2.484        -24.275
   2.486        -24.277
   2.489        -24.280
   2.491        -24.283
   2.493        -24.286
   2.495        -24.289
   2.497        -24.291
   2.499        -24.294
   2.502        -24.297
   2.504        -24.300
   2.506        -24.303
   2.508        -24.305
   2.510        -24.308
   2.512        -24.311
   2.514        -24.314
   2.517        -24.317
   2.519        -24.320
   2.521        -24.323
   2.523        -24.326
   2.525        -24.329
   2.528        -24.332
   2.530        -24.335
   2.532        -24.338
   2.534        -24.341
   2.536        -24.344
   2.538        -24.347
   2.541        -24.350
   2.543        -24.353
   2.545        -24.356
   2.547        -24.359
   2.549        -24.362
   2.552        -24.365
   2.554        -24.368
   2.556        -24.371
   2.558        -24.375
   2.560        -24.378
   2.562        -24.381
   2.565        -24.384
   2.567        -24.387
   2.569        -24.390
   2.571        -24.393
   2.573        -24.396
   2.575        -24.399
   2.578        -24.403
   2.580        -24.406
   2.582        -24.409
   2.584        -24.412
   2.586        -24.415
   2.588        -24.418
   2.590        -24.421
   2.593        -24.424
   2.595        -24.428
   2.597        -24.431
   2.599        -24.434
   2.601        -24.437
   2.604        -24.440
   2.606        -24.443
   2.608        -24.446
   2.610        -24.449
   2.612        -24.452
   2.614        -24.455
   2.617        -24.458
   2.619        -24.461
   2.621        -24.464
   2.623        -24.467
   2.625        -24.470
   2.627        -24.473
   2.630        -24.476
   2.632        -24.479
   2.634        -24.482
   2.636        -24.485
   2.638        -24.488
   2.641        -24.491
   2.643        -24.494
   2.645        -24.497
   2.647        -24.500
   2.649        -24.503
   2.651        -24.506
   2.654        -24.509
   2.656        -24.512
   2.658        -24.515
   2.660        -24.517
   2.662        -24.520
   2.664        -24.523
   2.666        -24.526
   2.669        -24.529
   2.671        -24.532
   2.673        -24.535
   2.675        -24.537
   2.677        -24.540
   2.680        -24.543
   2.682        -24.545
   2.684        -24.548
   2.686        -24.551
   2.688        -24.554
   2.690        -24.556
   2.693        -24.559
   2.695        -24.562
   2.697        -24.564
   2.699        -24.566
   2.701        -24.569
   2.703        -24.571
   2.706        -24.573
   2.708        -24.576
   2.710        -24.578
   2.712        -24.580
   2.714        -24.583
   2.716        -24.585
   2.719        -24.586
   2.721        -24.588
   2.723        -24.590
   2.725        -24.592
   2.727        -24.594
   2.729        -24.596
   2.732        -24.598
   2.734        -24.600
   2.736        -24.602
   2.738        -24.603
   2.740        -24.605
   2.743        -24.606
   2.745        -24.608
   2.747        -24.610
   2.749        -24.611
   2.751        -24.613
   2.753        -24.614
   2.756        -24.616
   2.758        -24.617
   2.760        -24.619
   2.762        -24.620
   2.764        -24.622
   2.766        -24.623
   2.769        -24.625
   2.771        -24.626
   2.773        -24.628
   2.775        -24.629
   2.777        -24.630
   2.779        -24.632
   2.782        -24.633
   2.784        -24.634
   2.786        -24.636
   2.788        -24.637
   2.790        -24.638
   2.792        -24.640
   2.795        -24.641
   2.797        -24.642
   2.799        -24.643
   2.801        -24.645
   2.803        -24.646
   2.805        -24.647
   2.808        -24.648
   2.810        -24.649
   2.812        -24.651
   2.814        -24.652
   2.816        -24.653
   2.819        -24.654
   2.821        -24.655
   2.823        -24.657
   2.825        -24.658
   2.827        -24.659
   2.829        -24.660
   2.832        -24.661
   2.834        -24.662
   2.836        -24.663
   2.838        -24.665
   2.840        -24.666
   2.842        -24.667
   2.845        -24.668
   2.847        -24.669
   2.849        -24.670
   2.851        -24.671
   2.853        -24.672
   2.855        -24.673
   2.858        -24.674
   2.860        -24.675
   2.862        -24.676
   2.864        -24.677
   2.866        -24.678
   2.868        -24.679
   2.871        -24.680
   2.873        -24.681
   2.875        -24.682
   2.877        -24.683
   2.879        -24.684
   2.881        -24.685
   2.884        -24.686
   2.886        -24.687
   2.888        -24.687
   2.890        -24.688
   2.892        -24.689
   2.894        -24.690
   2.897        -24.691
   2.899        -24.692
   2.901        -24.693
   2.903        -24.694
   2.905        -24.695
   2.908        -24.696
   2.910        -24.697
   2.912        -24.698
   2.914        -24.699
   2.916        -24.700
   2.918        -24.700
   2.921        -24.701
   2.923        -24.702
   2.925        -24.703
   2.927        -24.704
   2.929        -24.705
   2.931        -24.706
   2.934        -24.707
   2.936        -24.708
   2.938        -24.708
   2.940        -24.709
   2.942        -24.710
   2.944        -24.711
   2.947        -24.712
   2.949        -24.713
   2.951        -24.714
   2.953        -24.714
   2.955        -24.715
   2.957        -24.716
   2.960        -24.717
   2.962        -24.718
   2.964        -24.719
   2.966        -24.720
   2.968        -24.721
   2.970        -24.721
   2.973        -24.722
   2.975        -24.723
   2.977        -24.724
   2.979        -24.725
   2.981        -24.726
   2.984        -24.726
   2.986        -24.727
   2.988        -24.728
   2.990        -24.729
   2.992        -24.730
   2.994        -24.731
   2.997        -24.732
   2.999        -24.733
   3.001        -24.734
   3.003        -24.734
   3.005        -24.735
   3.007        -24.736
   3.010        -24.737
   3.012        -24.738
   3.014        -24.739
   3.016        -24.740
   3.018        -24.741
   3.020        -24.742
   3.023        -24.742
   3.025        -24.743
   3.027        -24.744
   3.029        -24.745
   3.031        -24.746
   3.033        -24.747
   3.036        -24.748
   3.038        -24.749
   3.040        -24.750
   3.042        -24.751
   3.044        -24.751
   3.046        -24.752
   3.049        -24.753
   3.051        -24.754
   3.053        -24.755
   3.055        -24.756
   3.057        -24.757
   3.060        -24.758
   3.062        -24.759
   3.064        -24.760
   3.066        -24.761
   3.068        -24.762
   3.070        -24.763
   3.073        -24.763
   3.075        -24.764
   3.077        -24.765
   3.079        -24.766
   3.081        -24.767
   3.083        -24.768
   3.086        -24.769
   3.088        -24.770
   3.090        -24.771
   3.092        -24.772
   3.094        -24.773
   3.096        -24.774
   3.099        -24.775
   3.101        -24.775
   3.103        -24.776
   3.105        -24.777
   3.107        -24.778
   3.109        -24.779
   3.112        -24.780
   3.114        -24.781
   3.116        -24.782
   3.118        -24.783
   3.120        -24.784
   3.123        -24.785
   3.125        -24.786
   3.127        -24.787
   3.129        -24.788
   3.131        -24.789
   3.133        -24.790
   3.136        -24.791
   3.138        -24.791
   3.140        -24.792
   3.142        -24.794
   3.144        -24.794
   3.146        -24.795
   3.149        -24.796
   3.151        -24.797
   3.153        -24.798
   3.155        -24.799
   3.157        -24.800
   3.159        -24.801
   3.162        -24.802
   3.164        -24.803
   3.166        -24.804
   3.168        -24.805
   3.170        -24.805
   3.172        -24.807
   3.175        -24.808
   3.177        -24.809
   3.179        -24.809
   3.181        -24.810
   3.183        -24.811
   3.185        -24.812
   3.188        -24.813
   3.190        -24.814
   3.192        -24.815
   3.194        -24.816
   3.196        -24.817
   3.199        -24.818
   3.201        -24.819
   3.203        -24.820
   3.205        -24.821
   3.207        -24.822
   3.209        -24.823
   3.212        -24.824
   3.214        -24.825
   3.216        -24.826
   3.218        -24.827
   3.220        -24.828
   3.222        -24.829
   3.225        -24.830
   3.227        -24.831
   3.229        -24.832
   3.231        -24.832
   3.233        -24.834
   3.236        -24.835
   3.237        -24.835
   3.240        -24.837
   3.242        -24.838
   3.244        -24.838
   3.246        -24.839
   3.248        -24.840
   3.251        -24.842
   3.253        -24.842
   3.255        -24.843
   3.257        -24.844
   3.259        -24.845
   3.261        -24.846
   3.263        -24.847
   3.266        -24.848
   3.268        -24.849
   3.270        -24.850
   3.272        -24.851
   3.274        -24.852
   3.277        -24.853
   3.279        -24.854
   3.281        -24.855
   3.283        -24.855
   3.285        -24.857
   3.287        -24.857
   3.290        -24.858
   3.292        -24.859
   3.294        -24.860
   3.296        -24.861
   3.298        -24.862
   3.301        -24.863
   3.303        -24.864
   3.305        -24.865
   3.307        -24.866
   3.309        -24.867
   3.311        -24.868
   3.313        -24.869
   3.316        -24.870
   3.318        -24.871
   3.320        -24.872
   3.322        -24.873
   3.324        -24.874
   3.327        -24.875
   3.329        -24.876
   3.331        -24.876
   3.333        -24.877
   3.335        -24.878
   3.337        -24.879
   3.340        -24.880
   3.342        -24.881
   3.344        -24.882
   3.346        -24.883
   3.348        -24.884
   3.350        -24.885
   3.352        -24.886
   3.355        -24.887
   3.357        -24.888
   3.359        -24.889
   3.361        -24.890
   3.363        -24.891
   3.366        -24.891
   3.368        -24.892
   3.370        -24.893
   3.372        -24.894
   3.374        -24.895
   3.376        -24.896
   3.379        -24.897
   3.381        -24.898
   3.383        -24.899
   3.385        -24.900
   3.387        -24.901
   3.389        -24.901
   3.392        -24.902
   3.394        -24.903
   3.396        -24.904
   3.398        -24.905
   3.400        -24.906
   3.402        -24.907
   3.405        -24.908
   3.407        -24.909
   3.409        -24.910
   3.411        -24.910
   3.413        -24.911
   3.416        -24.912
   3.418        -24.913
   3.420        -24.914
   3.422        -24.915
   3.424        -24.916
   3.426        -24.917
   3.429        -24.918
   3.431        -24.919
   3.433        -24.920
   3.435        -24.921
   3.437        -24.921
   3.439        -24.922
   3.442        -24.923
   3.444        -24.924
   3.446        -24.925
   3.448        -24.926
   3.450        -24.927
   3.452        -24.928
   3.455        -24.929
   3.457        -24.930
   3.459        -24.930
   3.461        -24.931
   3.463        -24.932
   3.466        -24.933
   3.468        -24.934
   3.470        -24.935
   3.472        -24.936
   3.474        -24.936
   3.476        -24.937
   3.478        -24.938
   3.481        -24.939
   3.483        -24.940
   3.485        -24.941
   3.487        -24.942
   3.489        -24.943
   3.492        -24.944
   3.494        -24.945
   3.496        -24.946
   3.498        -24.947
   3.500        -24.947
   3.502        -24.948
   3.505        -24.949
   3.507        -24.950
   3.509        -24.951
   3.511        -24.952
   3.513        -24.953
   3.515        -24.954
   3.518        -24.955
   3.520        -24.956
   3.522        -24.957
   3.524        -24.958
   3.526        -24.959
   3.528        -24.960
   3.531        -24.961
   3.533        -24.962
   3.535        -24.963
   3.537        -24.964
   3.539        -24.965
   3.541        -24.966
   3.544        -24.967
   3.546        -24.967
   3.548        -24.968
   3.550        -24.969
   3.552        -24.971
   3.555        -24.972
   3.557        -24.973
   3.559        -24.973
   3.561        -24.974
   3.563        -24.975
   3.565        -24.977
   3.568        -24.977
   3.570        -24.978
   3.572        -24.979
   3.574        -24.980
   3.576        -24.981
   3.578        -24.982
   3.581        -24.983
   3.583        -24.984
   3.585        -24.985
   3.587        -24.986
   3.589        -24.987
   3.591        -24.988
   3.594        -24.989
   3.596        -24.990
   3.598        -24.991
   3.600        -24.992
   3.602        -24.993
   3.604        -24.994
   3.607        -24.994
   3.609        -24.996
   3.611        -24.996
   3.613        -24.997
   3.615        -24.998
   3.617        -24.999
   3.620        -25.001
   3.622        -25.001
   3.624        -25.002
   3.626        -25.003
   3.628        -25.004
   3.630        -25.005
   3.633        -25.006
   3.635        -25.007
   3.637        -25.008
   3.639        -25.009
   3.641        -25.010
   3.644        -25.011
   3.646        -25.012
   3.648        -25.013
   3.650        -25.014
   3.652        -25.015
   3.654        -25.016
   3.657        -25.017
   3.659        -25.018
   3.661        -25.019
   3.663        -25.020
   3.665        -25.021
   3.667        -25.022
   3.670        -25.023
   3.672        -25.024
   3.674        -25.025
   3.676        -25.026
   3.678        -25.027
   3.680        -25.028
   3.683        -25.029
   3.685        -25.030
   3.687        -25.031
   3.689        -25.032
   3.691        -25.033
   3.693        -25.034
   3.696        -25.035
   3.698        -25.036
   3.700        -25.037
   3.702        -25.038
   3.704        -25.039
   3.706        -25.040
   3.709        -25.041
   3.711        -25.042
   3.713        -25.043
   3.715        -25.044
   3.717        -25.045
   3.719        -25.046
   3.722        -25.047
   3.724        -25.048
   3.726        -25.049
   3.728        -25.050
   3.730        -25.051
   3.733        -25.052
   3.735        -25.053
   3.737        -25.054
   3.739        -25.055
   3.741        -25.056
   3.743        -25.057
   3.746        -25.058
   3.748        -25.059
   3.750        -25.060
   3.752        -25.061
   3.754        -25.062
   3.756        -25.063
   3.759        -25.064
   3.761        -25.065
   3.763        -25.066
   3.765        -25.067
   3.767        -25.068
   3.769        -25.069
   3.772        -25.070
   3.774        -25.071
   3.776        -25.072
   3.778        -25.073
   3.780        -25.074
   3.782        -25.075
   3.785        -25.076
   3.787        -25.077
   3.789        -25.078
   3.791        -25.079
   3.793        -25.080
   3.795        -25.081
   3.798        -25.082
   3.800        -25.083
   3.802        -25.084
   3.804        -25.085
   3.806        -25.086
   3.809        -25.087
   3.811        -25.088
   3.813        -25.089
   3.815        -25.089
   3.817        -25.090
   3.819        -25.091
   3.822        -25.092
   3.824        -25.093
   3.826        -25.094
   3.828        -25.095
   3.830        -25.096
   3.832        -25.097
   3.835        -25.098
   3.837        -25.099
   3.839        -25.099
   3.841        -25.100
   3.843        -25.101
   3.845        -25.102
   3.848        -25.102
   3.850        -25.103
   3.852        -25.104
   3.854        -25.104
   3.856        -25.105
   3.858        -25.106
   3.861        -25.107
   3.863        -25.107
   3.865        -25.108
   3.867        -25.109
   3.869        -25.109
   3.871        -25.110
   3.874        -25.111
   3.876        -25.111
   3.878        -25.112
   3.880        -25.112
   3.882        -25.113
   3.885        -25.114
   3.887        -25.114
   3.889        -25.115
   3.891        -25.116
   3.899        -25.118
   3.912        -25.122
   3.925        -25.126
   3.938        -25.130
   3.951        -25.134
   3.964        -25.138
   3.977        -25.142
   3.990        -25.146
   4.003        -25.150
   4.016        -25.155
   4.029        -25.159
   4.042        -25.164
   4.055        -25.169
   4.068        -25.174
   4.081        -25.179
   4.094        -25.184
   4.107        -25.190
   4.120        -25.196
   4.133        -25.202
   4.146        -25.208
   4.159        -25.214
   4.172        -25.221
   4.185        -25.228
   4.198        -25.236
   4.211        -25.243
   4.224        -25.251
   4.237        -25.260
   4.250        -25.268
   4.263        -25.277
   4.276        -25.287
   4.289        -25.296
   4.302        -25.307
   4.315        -25.317
   4.328        -25.328
   4.341        -25.339
   4.354        -25.350
   4.367        -25.362
   4.380        -25.374
   4.393        -25.386
   4.406        -25.398
   4.420        -25.411
   4.432        -25.424
   4.445        -25.437
   4.459        -25.451
   4.471        -25.464
   4.484        -25.478
   4.498        -25.492
   4.510        -25.506
   4.524        -25.521
   4.537        -25.535
   4.550        -25.550
   4.563        -25.565
   4.576        -25.580
   4.589        -25.595
   4.602        -25.611
   4.615        -25.626
   4.628        -25.642
   4.641        -25.658
   4.654        -25.674
   4.667        -25.690
   4.680        -25.706
   4.693        -25.722
   4.706        -25.739
   4.719        -25.756
   4.732        -25.773
   4.745        -25.790
   4.758        -25.807
   4.771        -25.824
   4.784        -25.841
   4.797        -25.858
   4.810        -25.876
   4.823        -25.894
   4.836        -25.912
   4.849        -25.930
   4.862        -25.948
   4.875        -25.967
   4.888        -25.985
   4.901        -26.004
   4.914        -26.022
   4.927        -26.041
   4.940        -26.060
   4.953        -26.079
   4.966        -26.098
   4.979        -26.118
   4.992        -26.137
   5.005        -26.157
   5.018        -26.176
   5.031        -26.196
   5.044        -26.216
   5.057        -26.236
   5.070        -26.256
   5.083        -26.276
   5.096        -26.296
   5.109        -26.317
   5.123        -26.337
   5.136        -26.357
   5.149        -26.378
   5.162        -26.399
   5.175        -26.420
   5.188        -26.440
   5.201        -26.461
   5.214        -26.483
   5.227        -26.503
   5.240        -26.525
   5.253        -26.546
   5.266        -26.568
   5.279        -26.590
   5.292        -26.612
   5.305        -26.634
   5.318        -26.656
   5.331        -26.678
   5.344        -26.701
   5.357        -26.724
   5.370        -26.747
   5.383        -26.770
   5.396        -26.794
   5.409        -26.818
   5.422        -26.842
   5.435        -26.867
   5.448        -26.892
   5.461        -26.917
   5.474        -26.942
   5.487        -26.968
   5.500        -26.994
   5.513        -27.020
   5.526        -27.047
   5.539        -27.074
   5.552        -27.101
   5.565        -27.129
   5.578        -27.157
   5.591        -27.186
   5.604        -27.215
   5.617        -27.245
   5.630        -27.275
   5.643        -27.305
   5.656        -27.336
   5.669        -27.367
   5.682        -27.399
   5.695        -27.431
   5.708        -27.464
   5.721        -27.498
   5.734        -27.532
   5.748        -27.566
   5.761        -27.602
   5.774        -27.637
   5.787        -27.674
   5.800        -27.711
   5.813        -27.748
   5.826        -27.787
   5.839        -27.826
   5.852        -27.866
   5.865        -27.906
   5.878        -27.948
   5.891        -27.990
   5.904        -28.033
   5.917        -28.076
   5.930        -28.121
   5.943        -28.166
   5.956        -28.212
   5.969        -28.259
   5.982        -28.307
   5.995        -28.357
   6.008        -28.407
   6.021        -28.458
   6.034        -28.509
   6.047        -28.562
   6.060        -28.617
   6.073        -28.672
   6.086        -28.728
   6.099        -28.786
   6.112        -28.845
   6.125        -28.905
   6.138        -28.966
   6.151        -29.028
   6.164        -29.093
   6.177        -29.158
   6.190        -29.225
   6.203        -29.293
   6.216        -29.363
   6.229        -29.434
   6.242        -29.507
   6.255        -29.581
   6.268        -29.658
   6.281        -29.735
   6.294        -29.815
   6.307        -29.896
   6.320        -29.979
   6.334        -30.064
   6.346        -30.152
   6.359        -30.241
   6.372        -30.332
   6.386        -30.426
   6.399        -30.521
   6.411        -30.619
   6.425        -30.719
   6.438        -30.822
   6.451        -30.927
   6.464        -31.034
   6.477        -31.144
   6.490        -31.256
   6.503        -31.373
   6.516        -31.491
   6.529        -31.612
   6.542        -31.737
   6.555        -31.864
   6.568        -31.995
   6.581        -32.129
   6.594        -32.266
   6.607        -32.409
   6.620        -32.553
   6.633        -32.700
   6.646        -32.850
   6.659        -33.005
   6.672        -33.166
   6.685        -33.330
   6.698        -33.498
   6.711        -33.671
   6.724        -33.850
   6.737        -34.032
   6.750        -34.217
   6.763        -34.413
   6.776        -34.619
   6.789        -34.824
   6.802        -35.035
   6.815        -35.255
   6.828        -35.504
   6.841        -35.776
   6.854        -36.094
   6.867        -36.751
   6.880        -37.845
