# log Energy    log Jnu
# (eV)          (ergs/s/cm2/Hz/Sr)
  -6.864        -20.296
  -6.820        -20.209
  -6.777        -20.122
  -6.734        -20.035
  -6.690        -19.948
  -6.647        -19.861
  -6.603        -19.774
  -6.560        -19.688
  -6.516        -19.601
  -6.473        -19.514
  -6.430        -19.427
  -6.386        -19.340
  -6.343        -19.253
  -6.299        -19.167
  -6.256        -19.080
  -6.212        -18.993
  -6.169        -18.906
  -6.126        -18.819
  -6.082        -18.732
  -6.039        -18.646
  -5.995        -18.559
  -5.952        -18.472
  -5.908        -18.385
  -5.865        -18.298
  -5.822        -18.211
  -5.778        -18.125
  -5.735        -18.038
  -5.691        -17.951
  -5.648        -17.864
  -5.605        -17.777
  -5.561        -17.690
  -5.518        -17.604
  -5.474        -17.517
  -5.431        -17.430
  -5.387        -17.343
  -5.344        -17.257
  -5.300        -17.170
  -5.257        -17.083
  -5.214        -16.996
  -5.170        -16.909
  -5.127        -16.823
  -5.083        -16.736
  -5.040        -16.650
  -4.996        -16.563
  -4.953        -16.476
  -4.910        -16.389
  -4.866        -16.303
  -4.823        -16.216
  -4.779        -16.130
  -4.736        -16.043
  -4.692        -15.957
  -4.649        -15.871
  -4.606        -15.784
  -4.562        -15.698
  -4.519        -15.612
  -4.475        -15.525
  -4.432        -15.439
  -4.388        -15.353
  -4.345        -15.267
  -4.302        -15.181
  -4.258        -15.095
  -4.215        -15.010
  -4.171        -14.924
  -4.128        -14.839
  -4.084        -14.754
  -4.041        -14.668
  -3.998        -14.584
  -3.954        -14.499
  -3.911        -14.414
  -3.867        -14.330
  -3.824        -14.246
  -3.781        -14.163
  -3.737        -14.079
  -3.693        -13.997
  -3.650        -13.914
  -3.607        -13.833
  -3.584        -13.794
  -3.582        -13.784
  -3.580        -13.782
  -3.577        -13.779
  -3.575        -13.775
  -3.573        -13.771
  -3.571        -13.767
  -3.569        -13.763
  -3.567        -13.759
  -3.564        -13.754
  -3.562        -13.751
  -3.560        -13.746
  -3.558        -13.742
  -3.556        -13.738
  -3.554        -13.734
  -3.551        -13.730
  -3.549        -13.726
  -3.547        -13.722
  -3.545        -13.718
  -3.543        -13.714
  -3.540        -13.710
  -3.538        -13.706
  -3.536        -13.702
  -3.534        -13.698
  -3.532        -13.694
  -3.530        -13.690
  -3.528        -13.686
  -3.525        -13.682
  -3.523        -13.678
  -3.521        -13.674
  -3.519        -13.670
  -3.517        -13.666
  -3.514        -13.662
  -3.512        -13.658
  -3.510        -13.654
  -3.508        -13.650
  -3.506        -13.646
  -3.504        -13.642
  -3.502        -13.638
  -3.499        -13.634
  -3.497        -13.630
  -3.495        -13.626
  -3.493        -13.622
  -3.491        -13.618
  -3.488        -13.614
  -3.486        -13.610
  -3.484        -13.606
  -3.482        -13.602
  -3.480        -13.598
  -3.477        -13.594
  -3.475        -13.590
  -3.473        -13.586
  -3.471        -13.582
  -3.469        -13.578
  -3.467        -13.574
  -3.464        -13.570
  -3.462        -13.566
  -3.460        -13.562
  -3.458        -13.558
  -3.456        -13.554
  -3.454        -13.550
  -3.451        -13.546
  -3.449        -13.542
  -3.447        -13.538
  -3.445        -13.534
  -3.443        -13.530
  -3.441        -13.526
  -3.438        -13.522
  -3.436        -13.518
  -3.434        -13.514
  -3.432        -13.510
  -3.430        -13.506
  -3.428        -13.502
  -3.425        -13.498
  -3.423        -13.495
  -3.421        -13.491
  -3.419        -13.487
  -3.417        -13.483
  -3.415        -13.479
  -3.412        -13.475
  -3.410        -13.471
  -3.408        -13.467
  -3.406        -13.463
  -3.404        -13.459
  -3.402        -13.455
  -3.399        -13.451
  -3.397        -13.447
  -3.395        -13.444
  -3.393        -13.440
  -3.391        -13.436
  -3.389        -13.432
  -3.386        -13.428
  -3.384        -13.424
  -3.382        -13.420
  -3.380        -13.416
  -3.378        -13.412
  -3.376        -13.408
  -3.373        -13.404
  -3.371        -13.401
  -3.369        -13.397
  -3.367        -13.393
  -3.365        -13.389
  -3.362        -13.385
  -3.360        -13.381
  -3.358        -13.377
  -3.356        -13.373
  -3.354        -13.370
  -3.352        -13.366
  -3.349        -13.362
  -3.347        -13.358
  -3.345        -13.354
  -3.343        -13.350
  -3.341        -13.347
  -3.339        -13.343
  -3.336        -13.339
  -3.334        -13.335
  -3.332        -13.331
  -3.330        -13.327
  -3.328        -13.323
  -3.326        -13.320
  -3.323        -13.316
  -3.321        -13.312
  -3.319        -13.308
  -3.317        -13.304
  -3.315        -13.300
  -3.313        -13.297
  -3.310        -13.293
  -3.308        -13.289
  -3.306        -13.285
  -3.304        -13.281
  -3.302        -13.278
  -3.300        -13.274
  -3.297        -13.270
  -3.295        -13.266
  -3.293        -13.262
  -3.291        -13.259
  -3.289        -13.255
  -3.287        -13.251
  -3.284        -13.247
  -3.282        -13.244
  -3.280        -13.240
  -3.278        -13.236
  -3.276        -13.232
  -3.273        -13.228
  -3.271        -13.225
  -3.269        -13.221
  -3.267        -13.217
  -3.265        -13.214
  -3.263        -13.210
  -3.260        -13.206
  -3.258        -13.202
  -3.256        -13.198
  -3.254        -13.195
  -3.252        -13.191
  -3.250        -13.187
  -3.247        -13.184
  -3.245        -13.180
  -3.243        -13.176
  -3.241        -13.172
  -3.239        -13.169
  -3.237        -13.165
  -3.234        -13.161
  -3.232        -13.158
  -3.230        -13.154
  -3.228        -13.150
  -3.226        -13.146
  -3.224        -13.143
  -3.221        -13.139
  -3.219        -13.135
  -3.217        -13.132
  -3.215        -13.128
  -3.213        -13.124
  -3.211        -13.121
  -3.208        -13.117
  -3.206        -13.114
  -3.204        -13.110
  -3.202        -13.106
  -3.200        -13.103
  -3.197        -13.099
  -3.195        -13.095
  -3.193        -13.092
  -3.191        -13.088
  -3.189        -13.084
  -3.187        -13.081
  -3.184        -13.077
  -3.182        -13.073
  -3.180        -13.070
  -3.178        -13.066
  -3.176        -13.063
  -3.174        -13.059
  -3.171        -13.055
  -3.169        -13.052
  -3.167        -13.048
  -3.165        -13.045
  -3.163        -13.041
  -3.161        -13.038
  -3.158        -13.034
  -3.156        -13.030
  -3.154        -13.027
  -3.152        -13.023
  -3.150        -13.020
  -3.148        -13.016
  -3.145        -13.013
  -3.143        -13.009
  -3.141        -13.006
  -3.139        -13.002
  -3.137        -12.999
  -3.135        -12.995
  -3.132        -12.991
  -3.130        -12.988
  -3.128        -12.984
  -3.126        -12.981
  -3.124        -12.978
  -3.122        -12.974
  -3.119        -12.970
  -3.117        -12.967
  -3.115        -12.964
  -3.113        -12.960
  -3.111        -12.957
  -3.108        -12.953
  -3.106        -12.950
  -3.104        -12.946
  -3.102        -12.943
  -3.100        -12.939
  -3.098        -12.936
  -3.095        -12.932
  -3.093        -12.929
  -3.091        -12.926
  -3.089        -12.922
  -3.087        -12.919
  -3.085        -12.915
  -3.082        -12.912
  -3.080        -12.909
  -3.078        -12.905
  -3.076        -12.902
  -3.074        -12.898
  -3.072        -12.895
  -3.069        -12.892
  -3.067        -12.888
  -3.065        -12.885
  -3.063        -12.881
  -3.061        -12.878
  -3.059        -12.875
  -3.056        -12.871
  -3.054        -12.868
  -3.052        -12.865
  -3.050        -12.861
  -3.048        -12.858
  -3.046        -12.855
  -3.043        -12.852
  -3.041        -12.848
  -3.039        -12.845
  -3.037        -12.842
  -3.035        -12.838
  -3.032        -12.835
  -3.030        -12.832
  -3.028        -12.829
  -3.026        -12.825
  -3.024        -12.822
  -3.022        -12.819
  -3.019        -12.816
  -3.017        -12.812
  -3.015        -12.809
  -3.013        -12.806
  -3.011        -12.803
  -3.009        -12.799
  -3.006        -12.796
  -3.004        -12.793
  -3.002        -12.790
  -3.000        -12.787
  -2.998        -12.784
  -2.996        -12.780
  -2.993        -12.777
  -2.991        -12.774
  -2.989        -12.771
  -2.987        -12.768
  -2.985        -12.765
  -2.983        -12.762
  -2.980        -12.758
  -2.978        -12.755
  -2.976        -12.752
  -2.974        -12.749
  -2.972        -12.746
  -2.970        -12.743
  -2.967        -12.740
  -2.965        -12.737
  -2.963        -12.734
  -2.961        -12.731
  -2.959        -12.727
  -2.956        -12.725
  -2.954        -12.721
  -2.952        -12.718
  -2.950        -12.715
  -2.948        -12.712
  -2.946        -12.709
  -2.944        -12.706
  -2.941        -12.703
  -2.939        -12.700
  -2.937        -12.697
  -2.935        -12.694
  -2.933        -12.691
  -2.930        -12.689
  -2.928        -12.686
  -2.926        -12.683
  -2.924        -12.680
  -2.922        -12.677
  -2.920        -12.674
  -2.917        -12.671
  -2.915        -12.668
  -2.913        -12.665
  -2.911        -12.662
  -2.909        -12.659
  -2.907        -12.657
  -2.904        -12.654
  -2.902        -12.651
  -2.900        -12.648
  -2.898        -12.645
  -2.896        -12.642
  -2.894        -12.640
  -2.891        -12.637
  -2.889        -12.634
  -2.887        -12.631
  -2.885        -12.629
  -2.883        -12.626
  -2.880        -12.623
  -2.878        -12.620
  -2.876        -12.617
  -2.874        -12.615
  -2.872        -12.612
  -2.870        -12.609
  -2.867        -12.607
  -2.865        -12.604
  -2.863        -12.601
  -2.861        -12.598
  -2.859        -12.596
  -2.857        -12.593
  -2.855        -12.591
  -2.852        -12.588
  -2.850        -12.585
  -2.848        -12.583
  -2.846        -12.580
  -2.843        -12.578
  -2.842        -12.575
  -2.839        -12.572
  -2.837        -12.570
  -2.835        -12.567
  -2.833        -12.565
  -2.831        -12.562
  -2.828        -12.560
  -2.826        -12.557
  -2.824        -12.555
  -2.822        -12.552
  -2.820        -12.550
  -2.817        -12.547
  -2.815        -12.545
  -2.813        -12.542
  -2.811        -12.540
  -2.809        -12.537
  -2.807        -12.535
  -2.805        -12.532
  -2.802        -12.531
  -2.800        -12.528
  -2.798        -12.526
  -2.796        -12.523
  -2.794        -12.521
  -2.792        -12.518
  -2.789        -12.516
  -2.787        -12.514
  -2.785        -12.512
  -2.783        -12.509
  -2.781        -12.507
  -2.779        -12.505
  -2.776        -12.503
  -2.774        -12.500
  -2.772        -12.498
  -2.770        -12.496
  -2.767        -12.494
  -2.765        -12.492
  -2.763        -12.490
  -2.761        -12.487
  -2.759        -12.485
  -2.757        -12.483
  -2.754        -12.481
  -2.753        -12.479
  -2.750        -12.477
  -2.748        -12.475
  -2.746        -12.473
  -2.744        -12.471
  -2.741        -12.469
  -2.739        -12.467
  -2.737        -12.464
  -2.735        -12.463
  -2.733        -12.461
  -2.731        -12.459
  -2.729        -12.457
  -2.726        -12.454
  -2.724        -12.453
  -2.722        -12.451
  -2.720        -12.449
  -2.718        -12.447
  -2.716        -12.445
  -2.713        -12.443
  -2.711        -12.442
  -2.709        -12.440
  -2.707        -12.438
  -2.705        -12.436
  -2.703        -12.434
  -2.700        -12.433
  -2.698        -12.431
  -2.696        -12.429
  -2.694        -12.428
  -2.692        -12.426
  -2.689        -12.424
  -2.687        -12.422
  -2.685        -12.421
  -2.683        -12.419
  -2.681        -12.417
  -2.679        -12.416
  -2.677        -12.414
  -2.674        -12.413
  -2.672        -12.412
  -2.670        -12.410
  -2.668        -12.408
  -2.666        -12.407
  -2.663        -12.405
  -2.661        -12.404
  -2.659        -12.402
  -2.657        -12.401
  -2.655        -12.400
  -2.653        -12.398
  -2.650        -12.397
  -2.648        -12.396
  -2.646        -12.394
  -2.644        -12.393
  -2.642        -12.392
  -2.640        -12.390
  -2.637        -12.389
  -2.635        -12.388
  -2.633        -12.387
  -2.631        -12.385
  -2.629        -12.384
  -2.626        -12.383
  -2.624        -12.382
  -2.622        -12.381
  -2.620        -12.380
  -2.618        -12.379
  -2.616        -12.378
  -2.614        -12.376
  -2.611        -12.376
  -2.609        -12.375
  -2.607        -12.373
  -2.605        -12.373
  -2.603        -12.372
  -2.600        -12.371
  -2.598        -12.370
  -2.596        -12.369
  -2.594        -12.368
  -2.592        -12.367
  -2.590        -12.366
  -2.587        -12.366
  -2.585        -12.365
  -2.583        -12.364
  -2.581        -12.363
  -2.579        -12.363
  -2.577        -12.362
  -2.574        -12.361
  -2.572        -12.361
  -2.570        -12.360
  -2.568        -12.360
  -2.566        -12.359
  -2.564        -12.358
  -2.561        -12.358
  -2.559        -12.357
  -2.557        -12.357
  -2.555        -12.356
  -2.553        -12.356
  -2.551        -12.355
  -2.548        -12.355
  -2.546        -12.355
  -2.544        -12.355
  -2.542        -12.354
  -2.540        -12.354
  -2.538        -12.354
  -2.535        -12.354
  -2.533        -12.353
  -2.531        -12.353
  -2.529        -12.353
  -2.527        -12.353
  -2.525        -12.353
  -2.522        -12.353
  -2.520        -12.352
  -2.518        -12.353
  -2.516        -12.353
  -2.514        -12.352
  -2.511        -12.353
  -2.509        -12.353
  -2.507        -12.353
  -2.505        -12.353
  -2.503        -12.353
  -2.501        -12.353
  -2.498        -12.354
  -2.496        -12.354
  -2.494        -12.354
  -2.492        -12.354
  -2.490        -12.355
  -2.488        -12.355
  -2.485        -12.356
  -2.483        -12.356
  -2.481        -12.356
  -2.479        -12.357
  -2.477        -12.357
  -2.475        -12.358
  -2.472        -12.358
  -2.470        -12.359
  -2.468        -12.360
  -2.466        -12.361
  -2.464        -12.361
  -2.462        -12.362
  -2.459        -12.363
  -2.457        -12.363
  -2.455        -12.364
  -2.453        -12.365
  -2.451        -12.366
  -2.448        -12.367
  -2.446        -12.368
  -2.444        -12.369
  -2.442        -12.370
  -2.440        -12.371
  -2.438        -12.372
  -2.435        -12.373
  -2.433        -12.374
  -2.431        -12.376
  -2.429        -12.377
  -2.427        -12.378
  -2.425        -12.379
  -2.422        -12.381
  -2.420        -12.382
  -2.418        -12.383
  -2.416        -12.385
  -2.414        -12.386
  -2.412        -12.388
  -2.409        -12.389
  -2.407        -12.391
  -2.405        -12.393
  -2.403        -12.394
  -2.401        -12.396
  -2.398        -12.398
  -2.396        -12.399
  -2.394        -12.401
  -2.392        -12.403
  -2.390        -12.405
  -2.388        -12.407
  -2.386        -12.409
  -2.383        -12.411
  -2.381        -12.413
  -2.379        -12.415
  -2.377        -12.417
  -2.375        -12.419
  -2.372        -12.421
  -2.370        -12.423
  -2.368        -12.426
  -2.366        -12.428
  -2.364        -12.430
  -2.362        -12.433
  -2.359        -12.435
  -2.357        -12.438
  -2.355        -12.440
  -2.353        -12.443
  -2.351        -12.445
  -2.349        -12.448
  -2.346        -12.451
  -2.344        -12.453
  -2.342        -12.456
  -2.340        -12.459
  -2.338        -12.462
  -2.336        -12.465
  -2.333        -12.468
  -2.331        -12.471
  -2.329        -12.474
  -2.327        -12.477
  -2.325        -12.480
  -2.323        -12.483
  -2.320        -12.486
  -2.318        -12.490
  -2.316        -12.493
  -2.314        -12.496
  -2.312        -12.500
  -2.309        -12.503
  -2.307        -12.507
  -2.305        -12.510
  -2.303        -12.514
  -2.301        -12.517
  -2.299        -12.521
  -2.297        -12.525
  -2.294        -12.529
  -2.292        -12.532
  -2.290        -12.536
  -2.288        -12.540
  -2.286        -12.544
  -2.283        -12.548
  -2.281        -12.552
  -2.279        -12.557
  -2.277        -12.561
  -2.275        -12.565
  -2.273        -12.569
  -2.270        -12.574
  -2.268        -12.578
  -2.266        -12.582
  -2.264        -12.587
  -2.262        -12.591
  -2.260        -12.596
  -2.257        -12.601
  -2.255        -12.606
  -2.253        -12.610
  -2.251        -12.615
  -2.249        -12.620
  -2.247        -12.625
  -2.244        -12.630
  -2.242        -12.635
  -2.240        -12.640
  -2.238        -12.645
  -2.236        -12.651
  -2.234        -12.656
  -2.231        -12.661
  -2.229        -12.667
  -2.227        -12.672
  -2.225        -12.678
  -2.223        -12.683
  -2.220        -12.689
  -2.218        -12.694
  -2.216        -12.700
  -2.214        -12.706
  -2.212        -12.712
  -2.210        -12.718
  -2.207        -12.724
  -2.205        -12.730
  -2.203        -12.736
  -2.201        -12.742
  -2.199        -12.748
  -2.197        -12.755
  -2.194        -12.761
  -2.192        -12.767
  -2.190        -12.774
  -2.188        -12.781
  -2.186        -12.787
  -2.184        -12.794
  -2.181        -12.801
  -2.179        -12.808
  -2.177        -12.814
  -2.175        -12.821
  -2.173        -12.828
  -2.171        -12.836
  -2.168        -12.843
  -2.166        -12.850
  -2.164        -12.857
  -2.162        -12.865
  -2.160        -12.872
  -2.158        -12.880
  -2.155        -12.887
  -2.153        -12.895
  -2.151        -12.902
  -2.149        -12.910
  -2.147        -12.918
  -2.145        -12.926
  -2.142        -12.934
  -2.140        -12.942
  -2.138        -12.950
  -2.136        -12.958
  -2.134        -12.967
  -2.131        -12.975
  -2.129        -12.983
  -2.127        -12.992
  -2.125        -13.001
  -2.123        -13.009
  -2.121        -13.018
  -2.118        -13.027
  -2.116        -13.036
  -2.114        -13.044
  -2.112        -13.053
  -2.110        -13.063
  -2.108        -13.072
  -2.105        -13.081
  -2.103        -13.090
  -2.101        -13.100
  -2.099        -13.109
  -2.097        -13.119
  -2.095        -13.129
  -2.092        -13.138
  -2.090        -13.148
  -2.088        -13.158
  -2.086        -13.168
  -2.084        -13.178
  -2.082        -13.188
  -2.079        -13.199
  -2.077        -13.209
  -2.075        -13.219
  -2.073        -13.230
  -2.071        -13.240
  -2.069        -13.251
  -2.066        -13.262
  -2.064        -13.273
  -2.062        -13.284
  -2.060        -13.295
  -2.058        -13.306
  -2.056        -13.317
  -2.053        -13.328
  -2.051        -13.339
  -2.049        -13.351
  -2.047        -13.362
  -2.045        -13.374
  -2.043        -13.386
  -2.040        -13.398
  -2.038        -13.409
  -2.036        -13.422
  -2.034        -13.434
  -2.032        -13.446
  -2.029        -13.458
  -2.027        -13.471
  -2.025        -13.483
  -2.023        -13.496
  -2.021        -13.508
  -2.019        -13.521
  -2.016        -13.534
  -2.014        -13.547
  -2.012        -13.560
  -2.010        -13.573
  -2.008        -13.586
  -2.006        -13.600
  -2.003        -13.613
  -2.001        -13.627
  -1.999        -13.640
  -1.997        -13.654
  -1.995        -13.668
  -1.993        -13.682
  -1.990        -13.696
  -1.988        -13.710
  -1.986        -13.724
  -1.984        -13.739
  -1.982        -13.753
  -1.980        -13.768
  -1.977        -13.782
  -1.975        -13.797
  -1.973        -13.812
  -1.971        -13.827
  -1.969        -13.842
  -1.967        -13.857
  -1.964        -13.873
  -1.962        -13.888
  -1.960        -13.903
  -1.958        -13.919
  -1.956        -13.935
  -1.953        -13.951
  -1.951        -13.967
  -1.949        -13.983
  -1.947        -13.999
  -1.945        -14.015
  -1.943        -14.032
  -1.940        -14.048
  -1.938        -14.065
  -1.936        -14.082
  -1.934        -14.099
  -1.932        -14.116
  -1.930        -14.133
  -1.927        -14.150
  -1.925        -14.168
  -1.923        -14.185
  -1.921        -14.203
  -1.919        -14.220
  -1.917        -14.238
  -1.914        -14.256
  -1.912        -14.274
  -1.910        -14.292
  -1.908        -14.311
  -1.906        -14.329
  -1.904        -14.348
  -1.901        -14.367
  -1.899        -14.385
  -1.897        -14.404
  -1.895        -14.423
  -1.893        -14.443
  -1.891        -14.462
  -1.888        -14.482
  -1.886        -14.501
  -1.884        -14.521
  -1.882        -14.541
  -1.880        -14.561
  -1.877        -14.581
  -1.875        -14.601
  -1.873        -14.622
  -1.871        -14.642
  -1.869        -14.663
  -1.867        -14.684
  -1.864        -14.705
  -1.862        -14.726
  -1.860        -14.747
  -1.858        -14.769
  -1.856        -14.790
  -1.853        -14.812
  -1.851        -14.833
  -1.849        -14.855
  -1.847        -14.877
  -1.845        -14.900
  -1.843        -14.922
  -1.841        -14.944
  -1.838        -14.967
  -1.836        -14.990
  -1.834        -15.013
  -1.832        -15.036
  -1.830        -15.059
  -1.828        -15.083
  -1.825        -15.106
  -1.823        -15.130
  -1.821        -15.154
  -1.819        -15.178
  -1.817        -15.202
  -1.815        -15.226
  -1.812        -15.251
  -1.810        -15.275
  -1.808        -15.300
  -1.806        -15.325
  -1.804        -15.350
  -1.801        -15.375
  -1.799        -15.401
  -1.797        -15.426
  -1.795        -15.452
  -1.793        -15.478
  -1.791        -15.504
  -1.788        -15.530
  -1.786        -15.556
  -1.784        -15.583
  -1.782        -15.610
  -1.780        -15.636
  -1.777        -15.664
  -1.775        -15.691
  -1.773        -15.718
  -1.771        -15.746
  -1.769        -15.774
  -1.767        -15.801
  -1.764        -15.829
  -1.763        -15.857
  -1.760        -15.886
  -1.758        -15.915
  -1.756        -15.943
  -1.754        -15.972
  -1.752        -16.001
  -1.749        -16.030
  -1.747        -16.060
  -1.745        -16.090
  -1.743        -16.119
  -1.741        -16.149
  -1.739        -16.179
  -1.736        -16.210
  -1.734        -16.240
  -1.732        -16.271
  -1.730        -16.302
  -1.728        -16.333
  -1.726        -16.364
  -1.723        -16.395
  -1.721        -16.427
  -1.719        -16.459
  -1.717        -16.491
  -1.715        -16.523
  -1.713        -16.555
  -1.710        -16.588
  -1.708        -16.620
  -1.706        -16.653
  -1.704        -16.686
  -1.702        -16.720
  -1.699        -16.753
  -1.697        -16.787
  -1.695        -16.820
  -1.693        -16.854
  -1.691        -16.889
  -1.689        -16.923
  -1.686        -16.958
  -1.684        -16.992
  -1.682        -17.027
  -1.680        -17.062
  -1.678        -17.097
  -1.675        -17.133
  -1.673        -17.168
  -1.671        -17.204
  -1.669        -17.240
  -1.667        -17.276
  -1.665        -17.312
  -1.663        -17.348
  -1.660        -17.384
  -1.658        -17.421
  -1.656        -17.458
  -1.654        -17.495
  -1.652        -17.531
  -1.650        -17.568
  -1.647        -17.605
  -1.645        -17.642
  -1.643        -17.680
  -1.641        -17.717
  -1.639        -17.754
  -1.637        -17.791
  -1.634        -17.828
  -1.632        -17.866
  -1.630        -17.903
  -1.628        -17.940
  -1.626        -17.976
  -1.623        -18.013
  -1.621        -18.050
  -1.619        -18.086
  -1.617        -18.122
  -1.615        -18.158
  -1.613        -18.193
  -1.611        -18.228
  -1.608        -18.263
  -1.606        -18.297
  -1.604        -18.330
  -1.602        -18.363
  -1.600        -18.395
  -1.597        -18.427
  -1.595        -18.458
  -1.593        -18.488
  -1.591        -18.517
  -1.589        -18.545
  -1.587        -18.573
  -1.584        -18.599
  -1.582        -18.624
  -1.580        -18.649
  -1.578        -18.672
  -1.576        -18.694
  -1.573        -18.716
  -1.571        -18.736
  -1.569        -18.754
  -1.567        -18.772
  -1.565        -18.789
  -1.563        -18.804
  -1.561        -18.819
  -1.558        -18.833
  -1.556        -18.845
  -1.554        -18.857
  -1.552        -18.868
  -1.550        -18.878
  -1.547        -18.888
  -1.545        -18.896
  -1.543        -18.904
  -1.541        -18.912
  -1.539        -18.918
  -1.537        -18.924
  -1.534        -18.930
  -1.532        -18.935
  -1.530        -18.940
  -1.528        -18.944
  -1.526        -18.948
  -1.524        -18.952
  -1.522        -18.955
  -1.519        -18.958
  -1.517        -18.961
  -1.515        -18.963
  -1.513        -18.966
  -1.511        -18.968
  -1.508        -18.970
  -1.506        -18.972
  -1.504        -18.974
  -1.502        -18.976
  -1.500        -18.977
  -1.498        -18.979
  -1.495        -18.980
  -1.493        -18.982
  -1.491        -18.983
  -1.489        -18.984
  -1.487        -18.986
  -1.484        -18.987
  -1.482        -18.988
  -1.480        -18.989
  -1.478        -18.990
  -1.476        -18.991
  -1.474        -18.992
  -1.472        -18.993
  -1.469        -18.994
  -1.467        -18.995
  -1.465        -18.996
  -1.463        -18.997
  -1.461        -18.997
  -1.458        -18.998
  -1.456        -18.999
  -1.454        -19.000
  -1.452        -19.001
  -1.450        -19.002
  -1.448        -19.002
  -1.445        -19.003
  -1.443        -19.004
  -1.441        -19.005
  -1.439        -19.006
  -1.437        -19.007
  -1.435        -19.007
  -1.432        -19.008
  -1.430        -19.009
  -1.428        -19.010
  -1.426        -19.011
  -1.424        -19.011
  -1.422        -19.012
  -1.419        -19.013
  -1.417        -19.014
  -1.415        -19.015
  -1.413        -19.015
  -1.411        -19.016
  -1.409        -19.017
  -1.406        -19.018
  -1.404        -19.019
  -1.402        -19.019
  -1.400        -19.020
  -1.398        -19.021
  -1.396        -19.022
  -1.393        -19.023
  -1.391        -19.023
  -1.389        -19.024
  -1.387        -19.025
  -1.385        -19.026
  -1.383        -19.026
  -1.380        -19.027
  -1.378        -19.028
  -1.376        -19.029
  -1.374        -19.029
  -1.372        -19.030
  -1.370        -19.031
  -1.367        -19.032
  -1.365        -19.033
  -1.363        -19.033
  -1.361        -19.034
  -1.359        -19.035
  -1.356        -19.036
  -1.354        -19.036
  -1.352        -19.037
  -1.350        -19.038
  -1.348        -19.039
  -1.346        -19.039
  -1.343        -19.040
  -1.341        -19.041
  -1.339        -19.042
  -1.337        -19.042
  -1.335        -19.043
  -1.333        -19.044
  -1.330        -19.045
  -1.328        -19.046
  -1.326        -19.046
  -1.324        -19.047
  -1.322        -19.048
  -1.320        -19.049
  -1.317        -19.049
  -1.315        -19.050
  -1.313        -19.051
  -1.311        -19.052
  -1.309        -19.052
  -1.307        -19.053
  -1.304        -19.054
  -1.302        -19.054
  -1.300        -19.055
  -1.298        -19.056
  -1.296        -19.057
  -1.293        -19.058
  -1.291        -19.058
  -1.289        -19.059
  -1.287        -19.060
  -1.285        -19.061
  -1.283        -19.061
  -1.280        -19.062
  -1.278        -19.063
  -1.276        -19.064
  -1.274        -19.064
  -1.272        -19.065
  -1.270        -19.066
  -1.267        -19.066
  -1.265        -19.067
  -1.263        -19.068
  -1.261        -19.069
  -1.259        -19.070
  -1.257        -19.070
  -1.254        -19.071
  -1.252        -19.072
  -1.250        -19.072
  -1.248        -19.073
  -1.246        -19.074
  -1.243        -19.075
  -1.241        -19.076
  -1.239        -19.076
  -1.237        -19.077
  -1.235        -19.078
  -1.233        -19.079
  -1.231        -19.079
  -1.228        -19.080
  -1.226        -19.081
  -1.224        -19.081
  -1.222        -19.082
  -1.220        -19.083
  -1.217        -19.084
  -1.215        -19.085
  -1.213        -19.085
  -1.211        -19.086
  -1.209        -19.087
  -1.207        -19.088
  -1.204        -19.088
  -1.202        -19.089
  -1.200        -19.090
  -1.198        -19.091
  -1.196        -19.092
  -1.194        -19.092
  -1.191        -19.093
  -1.189        -19.094
  -1.187        -19.095
  -1.185        -19.096
  -1.183        -19.096
  -1.181        -19.097
  -1.178        -19.098
  -1.176        -19.099
  -1.174        -19.100
  -1.172        -19.100
  -1.170        -19.101
  -1.168        -19.102
  -1.165        -19.103
  -1.163        -19.104
  -1.161        -19.104
  -1.159        -19.105
  -1.157        -19.106
  -1.155        -19.107
  -1.152        -19.108
  -1.150        -19.109
  -1.148        -19.110
  -1.146        -19.110
  -1.144        -19.111
  -1.142        -19.112
  -1.139        -19.113
  -1.137        -19.114
  -1.135        -19.115
  -1.133        -19.116
  -1.131        -19.117
  -1.129        -19.118
  -1.126        -19.119
  -1.124        -19.120
  -1.122        -19.121
  -1.120        -19.122
  -1.118        -19.122
  -1.115        -19.123
  -1.113        -19.124
  -1.111        -19.126
  -1.109        -19.127
  -1.107        -19.127
  -1.105        -19.129
  -1.102        -19.130
  -1.100        -19.131
  -1.098        -19.132
  -1.096        -19.133
  -1.094        -19.134
  -1.092        -19.135
  -1.089        -19.136
  -1.087        -19.137
  -1.085        -19.138
  -1.083        -19.139
  -1.081        -19.140
  -1.079        -19.142
  -1.076        -19.143
  -1.074        -19.144
  -1.072        -19.145
  -1.070        -19.146
  -1.068        -19.148
  -1.066        -19.149
  -1.063        -19.150
  -1.061        -19.152
  -1.059        -19.153
  -1.057        -19.154
  -1.055        -19.155
  -1.052        -19.157
  -1.050        -19.158
  -1.048        -19.160
  -1.046        -19.161
  -1.044        -19.163
  -1.042        -19.164
  -1.039        -19.166
  -1.037        -19.167
  -1.035        -19.169
  -1.033        -19.170
  -1.031        -19.172
  -1.029        -19.173
  -1.026        -19.175
  -1.024        -19.177
  -1.022        -19.179
  -1.020        -19.180
  -1.018        -19.182
  -1.016        -19.184
  -1.013        -19.185
  -1.011        -19.187
  -1.009        -19.189
  -1.007        -19.191
  -1.005        -19.193
  -1.003        -19.195
  -1.000        -19.197
  -0.998        -19.198
  -0.996        -19.200
  -0.994        -19.202
  -0.992        -19.204
  -0.990        -19.206
  -0.987        -19.208
  -0.985        -19.210
  -0.983        -19.211
  -0.981        -19.213
  -0.979        -19.215
  -0.977        -19.217
  -0.974        -19.219
  -0.972        -19.221
  -0.970        -19.222
  -0.968        -19.224
  -0.966        -19.226
  -0.963        -19.228
  -0.961        -19.229
  -0.959        -19.231
  -0.957        -19.233
  -0.955        -19.234
  -0.953        -19.236
  -0.950        -19.238
  -0.948        -19.240
  -0.946        -19.241
  -0.944        -19.243
  -0.942        -19.244
  -0.940        -19.246
  -0.937        -19.248
  -0.935        -19.249
  -0.933        -19.251
  -0.931        -19.252
  -0.929        -19.254
  -0.927        -19.255
  -0.924        -19.257
  -0.922        -19.258
  -0.920        -19.260
  -0.918        -19.261
  -0.916        -19.262
  -0.914        -19.264
  -0.911        -19.265
  -0.909        -19.267
  -0.907        -19.268
  -0.905        -19.269
  -0.903        -19.270
  -0.900        -19.272
  -0.898        -19.273
  -0.896        -19.274
  -0.894        -19.275
  -0.892        -19.276
  -0.890        -19.277
  -0.887        -19.279
  -0.885        -19.280
  -0.883        -19.281
  -0.881        -19.282
  -0.879        -19.283
  -0.877        -19.284
  -0.874        -19.285
  -0.872        -19.286
  -0.870        -19.287
  -0.868        -19.288
  -0.866        -19.289
  -0.864        -19.289
  -0.862        -19.290
  -0.859        -19.291
  -0.857        -19.292
  -0.855        -19.293
  -0.853        -19.294
  -0.851        -19.294
  -0.848        -19.295
  -0.846        -19.296
  -0.844        -19.297
  -0.842        -19.297
  -0.840        -19.298
  -0.838        -19.298
  -0.835        -19.299
  -0.833        -19.299
  -0.831        -19.300
  -0.829        -19.300
  -0.827        -19.301
  -0.825        -19.301
  -0.822        -19.302
  -0.820        -19.302
  -0.818        -19.303
  -0.816        -19.303
  -0.814        -19.303
  -0.812        -19.304
  -0.809        -19.304
  -0.807        -19.304
  -0.805        -19.304
  -0.803        -19.305
  -0.801        -19.305
  -0.799        -19.305
  -0.796        -19.305
  -0.794        -19.306
  -0.792        -19.305
  -0.790        -19.306
  -0.788        -19.306
  -0.785        -19.306
  -0.783        -19.306
  -0.781        -19.306
  -0.779        -19.306
  -0.777        -19.306
  -0.774        -19.306
  -0.772        -19.306
  -0.770        -19.306
  -0.768        -19.305
  -0.766        -19.306
  -0.764        -19.305
  -0.762        -19.305
  -0.759        -19.305
  -0.757        -19.305
  -0.755        -19.304
  -0.753        -19.304
  -0.751        -19.304
  -0.748        -19.304
  -0.746        -19.303
  -0.744        -19.303
  -0.742        -19.302
  -0.740        -19.302
  -0.738        -19.302
  -0.736        -19.301
  -0.733        -19.301
  -0.731        -19.300
  -0.729        -19.300
  -0.727        -19.299
  -0.725        -19.299
  -0.723        -19.298
  -0.720        -19.298
  -0.718        -19.297
  -0.716        -19.296
  -0.714        -19.296
  -0.712        -19.295
  -0.709        -19.294
  -0.707        -19.294
  -0.705        -19.293
  -0.703        -19.292
  -0.701        -19.292
  -0.699        -19.291
  -0.697        -19.290
  -0.694        -19.289
  -0.692        -19.288
  -0.690        -19.288
  -0.688        -19.287
  -0.685        -19.286
  -0.683        -19.285
  -0.681        -19.284
  -0.679        -19.283
  -0.677        -19.282
  -0.675        -19.281
  -0.673        -19.280
  -0.670        -19.279
  -0.668        -19.278
  -0.666        -19.277
  -0.664        -19.276
  -0.662        -19.275
  -0.659        -19.274
  -0.657        -19.273
  -0.655        -19.272
  -0.653        -19.271
  -0.651        -19.269
  -0.649        -19.268
  -0.647        -19.267
  -0.644        -19.265
  -0.642        -19.264
  -0.640        -19.262
  -0.638        -19.261
  -0.636        -19.260
  -0.633        -19.258
  -0.631        -19.256
  -0.629        -19.255
  -0.627        -19.253
  -0.625        -19.251
  -0.623        -19.249
  -0.621        -19.248
  -0.618        -19.246
  -0.616        -19.244
  -0.614        -19.242
  -0.612        -19.241
  -0.610        -19.238
  -0.608        -19.236
  -0.605        -19.234
  -0.603        -19.232
  -0.601        -19.230
  -0.599        -19.228
  -0.596        -19.226
  -0.594        -19.224
  -0.592        -19.222
  -0.590        -19.220
  -0.588        -19.218
  -0.586        -19.216
  -0.584        -19.214
  -0.581        -19.211
  -0.579        -19.209
  -0.577        -19.207
  -0.575        -19.205
  -0.573        -19.203
  -0.571        -19.200
  -0.568        -19.198
  -0.566        -19.196
  -0.564        -19.194
  -0.562        -19.192
  -0.560        -19.190
  -0.557        -19.187
  -0.555        -19.185
  -0.553        -19.183
  -0.551        -19.181
  -0.549        -19.179
  -0.547        -19.176
  -0.544        -19.174
  -0.542        -19.172
  -0.540        -19.170
  -0.538        -19.168
  -0.536        -19.165
  -0.534        -19.163
  -0.531        -19.161
  -0.529        -19.159
  -0.527        -19.156
  -0.525        -19.154
  -0.523        -19.152
  -0.521        -19.150
  -0.518        -19.147
  -0.516        -19.145
  -0.514        -19.143
  -0.512        -19.141
  -0.510        -19.138
  -0.507        -19.136
  -0.505        -19.134
  -0.503        -19.131
  -0.501        -19.129
  -0.499        -19.126
  -0.497        -19.124
  -0.495        -19.122
  -0.492        -19.119
  -0.490        -19.117
  -0.488        -19.115
  -0.486        -19.112
  -0.484        -19.110
  -0.482        -19.107
  -0.479        -19.105
  -0.477        -19.103
  -0.475        -19.100
  -0.473        -19.098
  -0.471        -19.096
  -0.468        -19.093
  -0.466        -19.091
  -0.464        -19.089
  -0.462        -19.086
  -0.460        -19.084
  -0.458        -19.082
  -0.455        -19.079
  -0.453        -19.077
  -0.451        -19.075
  -0.449        -19.073
  -0.447        -19.071
  -0.445        -19.068
  -0.442        -19.066
  -0.440        -19.064
  -0.438        -19.062
  -0.436        -19.060
  -0.434        -19.058
  -0.432        -19.056
  -0.429        -19.053
  -0.427        -19.051
  -0.425        -19.049
  -0.423        -19.047
  -0.421        -19.045
  -0.419        -19.043
  -0.416        -19.041
  -0.414        -19.039
  -0.412        -19.037
  -0.410        -19.035
  -0.408        -19.033
  -0.405        -19.031
  -0.403        -19.029
  -0.401        -19.027
  -0.399        -19.025
  -0.397        -19.023
  -0.395        -19.021
  -0.392        -19.019
  -0.390        -19.017
  -0.388        -19.016
  -0.386        -19.014
  -0.384        -19.012
  -0.382        -19.010
  -0.379        -19.008
  -0.377        -19.006
  -0.375        -19.004
  -0.373        -19.002
  -0.371        -19.000
  -0.369        -18.998
  -0.366        -18.996
  -0.364        -18.994
  -0.362        -18.992
  -0.360        -18.990
  -0.358        -18.988
  -0.356        -18.986
  -0.353        -18.984
  -0.351        -18.982
  -0.349        -18.981
  -0.347        -18.979
  -0.345        -18.977
  -0.343        -18.975
  -0.340        -18.973
  -0.338        -18.971
  -0.336        -18.969
  -0.334        -18.967
  -0.332        -18.965
  -0.330        -18.963
  -0.327        -18.961
  -0.325        -18.959
  -0.323        -18.958
  -0.321        -18.956
  -0.319        -18.954
  -0.316        -18.952
  -0.314        -18.950
  -0.312        -18.949
  -0.310        -18.947
  -0.308        -18.945
  -0.306        -18.943
  -0.303        -18.941
  -0.301        -18.940
  -0.299        -18.939
  -0.297        -18.937
  -0.295        -18.936
  -0.293        -18.934
  -0.290        -18.933
  -0.288        -18.932
  -0.286        -18.931
  -0.284        -18.929
  -0.282        -18.928
  -0.280        -18.927
  -0.277        -18.926
  -0.275        -18.925
  -0.273        -18.924
  -0.271        -18.923
  -0.269        -18.922
  -0.267        -18.921
  -0.264        -18.920
  -0.262        -18.919
  -0.260        -18.918
  -0.258        -18.917
  -0.256        -18.916
  -0.253        -18.915
  -0.251        -18.914
  -0.249        -18.914
  -0.247        -18.913
  -0.245        -18.912
  -0.243        -18.911
  -0.241        -18.910
  -0.238        -18.910
  -0.236        -18.909
  -0.234        -18.908
  -0.232        -18.908
  -0.230        -18.907
  -0.227        -18.906
  -0.225        -18.906
  -0.223        -18.905
  -0.221        -18.904
  -0.219        -18.904
  -0.217        -18.903
  -0.214        -18.903
  -0.212        -18.902
  -0.210        -18.902
  -0.208        -18.901
  -0.206        -18.901
  -0.204        -18.901
  -0.201        -18.900
  -0.199        -18.900
  -0.197        -18.899
  -0.195        -18.899
  -0.193        -18.899
  -0.191        -18.899
  -0.188        -18.899
  -0.186        -18.899
  -0.184        -18.898
  -0.182        -18.898
  -0.180        -18.898
  -0.178        -18.898
  -0.175        -18.898
  -0.173        -18.898
  -0.171        -18.898
  -0.169        -18.898
  -0.167        -18.899
  -0.164        -18.899
  -0.162        -18.899
  -0.160        -18.899
  -0.158        -18.899
  -0.156        -18.899
  -0.154        -18.900
  -0.151        -18.900
  -0.149        -18.900
  -0.147        -18.901
  -0.145        -18.901
  -0.143        -18.901
  -0.141        -18.902
  -0.138        -18.902
  -0.136        -18.902
  -0.134        -18.903
  -0.132        -18.903
  -0.130        -18.904
  -0.128        -18.904
  -0.125        -18.904
  -0.123        -18.905
  -0.121        -18.905
  -0.119        -18.905
  -0.117        -18.906
  -0.115        -18.906
  -0.112        -18.907
  -0.110        -18.907
  -0.108        -18.907
  -0.106        -18.907
  -0.104        -18.907
  -0.102        -18.908
  -0.099        -18.908
  -0.097        -18.908
  -0.095        -18.908
  -0.093        -18.909
  -0.091        -18.909
  -0.089        -18.909
  -0.086        -18.909
  -0.084        -18.909
  -0.082        -18.909
  -0.080        -18.909
  -0.078        -18.909
  -0.075        -18.909
  -0.073        -18.909
  -0.071        -18.910
  -0.069        -18.909
  -0.067        -18.910
  -0.065        -18.910
  -0.063        -18.910
  -0.060        -18.910
  -0.058        -18.910
  -0.056        -18.910
  -0.054        -18.910
  -0.052        -18.910
  -0.049        -18.910
  -0.047        -18.910
  -0.045        -18.910
  -0.043        -18.911
  -0.041        -18.911
  -0.039        -18.911
  -0.036        -18.911
  -0.034        -18.911
  -0.032        -18.911
  -0.030        -18.911
  -0.028        -18.911
  -0.026        -18.912
  -0.023        -18.912
  -0.021        -18.912
  -0.019        -18.912
  -0.017        -18.912
  -0.015        -18.912
  -0.013        -18.912
  -0.010        -18.912
  -0.008        -18.912
  -0.006        -18.912
  -0.004        -18.912
  -0.002        -18.913
   0.000        -18.913
   0.003        -18.913
   0.005        -18.913
   0.007        -18.913
   0.009        -18.913
   0.011        -18.913
   0.013        -18.913
   0.016        -18.913
   0.018        -18.913
   0.020        -18.913
   0.022        -18.913
   0.024        -18.914
   0.027        -18.914
   0.029        -18.914
   0.031        -18.914
   0.033        -18.914
   0.035        -18.914
   0.037        -18.914
   0.040        -18.914
   0.042        -18.915
   0.044        -18.915
   0.046        -18.915
   0.048        -18.915
   0.050        -18.915
   0.053        -18.915
   0.055        -18.915
   0.057        -18.915
   0.059        -18.916
   0.061        -18.916
   0.063        -18.916
   0.066        -18.916
   0.068        -18.916
   0.070        -18.916
   0.072        -18.916
   0.074        -18.916
   0.076        -18.916
   0.079        -18.916
   0.081        -18.916
   0.083        -18.916
   0.085        -18.916
   0.087        -18.916
   0.089        -18.916
   0.092        -18.916
   0.094        -18.915
   0.096        -18.915
   0.098        -18.915
   0.100        -18.915
   0.103        -18.915
   0.105        -18.915
   0.107        -18.915
   0.109        -18.915
   0.111        -18.915
   0.113        -18.915
   0.116        -18.915
   0.118        -18.915
   0.120        -18.915
   0.122        -18.915
   0.124        -18.915
   0.126        -18.915
   0.128        -18.915
   0.131        -18.914
   0.133        -18.915
   0.135        -18.915
   0.137        -18.914
   0.139        -18.914
   0.142        -18.915
   0.144        -18.915
   0.146        -18.914
   0.148        -18.915
   0.150        -18.915
   0.153        -18.915
   0.155        -18.915
   0.157        -18.915
   0.159        -18.915
   0.161        -18.916
   0.163        -18.916
   0.165        -18.916
   0.168        -18.917
   0.170        -18.917
   0.172        -18.917
   0.174        -18.918
   0.176        -18.918
   0.178        -18.918
   0.181        -18.919
   0.183        -18.919
   0.185        -18.920
   0.187        -18.921
   0.189        -18.921
   0.192        -18.922
   0.194        -18.922
   0.196        -18.923
   0.198        -18.923
   0.200        -18.924
   0.202        -18.924
   0.205        -18.925
   0.207        -18.925
   0.209        -18.926
   0.211        -18.927
   0.213        -18.927
   0.215        -18.928
   0.218        -18.929
   0.220        -18.929
   0.222        -18.930
   0.224        -18.930
   0.226        -18.931
   0.229        -18.932
   0.231        -18.932
   0.233        -18.933
   0.235        -18.933
   0.237        -18.934
   0.239        -18.935
   0.241        -18.935
   0.244        -18.936
   0.246        -18.937
   0.248        -18.937
   0.250        -18.938
   0.252        -18.939
   0.254        -18.940
   0.257        -18.940
   0.259        -18.941
   0.261        -18.942
   0.263        -18.943
   0.265        -18.943
   0.267        -18.944
   0.270        -18.945
   0.272        -18.946
   0.274        -18.947
   0.276        -18.947
   0.278        -18.948
   0.281        -18.949
   0.283        -18.950
   0.285        -18.951
   0.287        -18.952
   0.289        -18.952
   0.291        -18.953
   0.293        -18.954
   0.296        -18.955
   0.298        -18.956
   0.300        -18.957
   0.302        -18.958
   0.305        -18.959
   0.307        -18.960
   0.309        -18.961
   0.311        -18.962
   0.313        -18.963
   0.315        -18.965
   0.318        -18.966
   0.320        -18.967
   0.322        -18.968
   0.324        -18.969
   0.326        -18.970
   0.328        -18.971
   0.330        -18.972
   0.333        -18.974
   0.335        -18.975
   0.337        -18.976
   0.339        -18.977
   0.341        -18.978
   0.344        -18.980
   0.346        -18.981
   0.348        -18.982
   0.350        -18.983
   0.352        -18.985
   0.354        -18.986
   0.356        -18.987
   0.359        -18.989
   0.361        -18.990
   0.363        -18.991
   0.365        -18.992
   0.367        -18.994
   0.369        -18.995
   0.372        -18.996
   0.374        -18.997
   0.376        -18.999
   0.378        -19.000
   0.380        -19.001
   0.383        -19.002
   0.385        -19.004
   0.387        -19.005
   0.389        -19.006
   0.391        -19.008
   0.393        -19.009
   0.396        -19.011
   0.398        -19.012
   0.400        -19.014
   0.402        -19.015
   0.404        -19.017
   0.406        -19.018
   0.409        -19.020
   0.411        -19.022
   0.413        -19.024
   0.415        -19.026
   0.417        -19.028
   0.420        -19.029
   0.422        -19.031
   0.424        -19.033
   0.426        -19.035
   0.428        -19.037
   0.430        -19.039
   0.432        -19.041
   0.435        -19.043
   0.437        -19.045
   0.439        -19.047
   0.441        -19.049
   0.443        -19.051
   0.446        -19.053
   0.448        -19.055
   0.450        -19.057
   0.452        -19.060
   0.454        -19.062
   0.456        -19.064
   0.459        -19.067
   0.461        -19.069
   0.463        -19.071
   0.465        -19.074
   0.467        -19.076
   0.469        -19.079
   0.472        -19.081
   0.474        -19.083
   0.476        -19.085
   0.478        -19.087
   0.480        -19.090
   0.482        -19.092
   0.485        -19.094
   0.487        -19.096
   0.489        -19.098
   0.491        -19.099
   0.493        -19.099
   0.495        -19.100
   0.498        -19.101
   0.500        -19.101
   0.502        -19.102
   0.504        -19.102
   0.506        -19.103
   0.510        -19.104
   0.512        -19.103
   0.513        -19.103
   0.515        -19.102
   0.517        -19.102
   0.519        -19.101
   0.522        -19.101
   0.524        -19.100
   0.526        -19.100
   0.528        -19.099
   0.530        -19.099
   0.532        -19.098
   0.535        -19.098
   0.537        -19.097
   0.539        -19.096
   0.541        -19.096
   0.543        -19.095
   0.545        -19.095
   0.548        -19.094
   0.550        -19.094
   0.552        -19.093
   0.554        -19.093
   0.556        -19.092
   0.558        -19.092
   0.561        -19.091
   0.563        -19.090
   0.565        -19.090
   0.567        -19.089
   0.569        -19.089
   0.572        -19.088
   0.574        -19.087
   0.576        -19.087
   0.578        -19.086
   0.580        -19.086
   0.582        -19.085
   0.585        -19.084
   0.587        -19.084
   0.589        -19.083
   0.591        -19.083
   0.593        -19.082
   0.595        -19.081
   0.598        -19.081
   0.600        -19.080
   0.602        -19.079
   0.604        -19.079
   0.606        -19.078
   0.608        -19.077
   0.611        -19.077
   0.613        -19.076
   0.615        -19.076
   0.617        -19.075
   0.619        -19.074
   0.621        -19.073
   0.624        -19.073
   0.626        -19.072
   0.628        -19.072
   0.630        -19.071
   0.632        -19.070
   0.634        -19.069
   0.637        -19.069
   0.639        -19.068
   0.641        -19.068
   0.643        -19.068
   0.645        -19.067
   0.647        -19.067
   0.650        -19.066
   0.652        -19.066
   0.654        -19.066
   0.656        -19.065
   0.658        -19.065
   0.660        -19.064
   0.663        -19.063
   0.665        -19.063
   0.667        -19.062
   0.669        -19.062
   0.671        -19.061
   0.673        -19.060
   0.676        -19.060
   0.678        -19.059
   0.680        -19.059
   0.682        -19.058
   0.684        -19.057
   0.687        -19.056
   0.689        -19.055
   0.691        -19.055
   0.693        -19.054
   0.695        -19.053
   0.697        -19.052
   0.700        -19.052
   0.702        -19.051
   0.704        -19.050
   0.706        -19.050
   0.708        -19.049
   0.710        -19.049
   0.713        -19.048
   0.715        -19.048
   0.717        -19.047
   0.719        -19.047
   0.721        -19.046
   0.723        -19.046
   0.726        -19.046
   0.728        -19.046
   0.730        -19.045
   0.732        -19.045
   0.734        -19.045
   0.736        -19.044
   0.739        -19.044
   0.741        -19.044
   0.743        -19.044
   0.745        -19.045
   0.747        -19.045
   0.750        -19.045
   0.752        -19.045
   0.754        -19.045
   0.756        -19.045
   0.758        -19.045
   0.760        -19.046
   0.762        -19.047
   0.765        -19.048
   0.767        -19.049
   0.769        -19.050
   0.771        -19.051
   0.773        -19.052
   0.776        -19.053
   0.778        -19.054
   0.780        -19.055
   0.782        -19.056
   0.784        -19.058
   0.786        -19.059
   0.789        -19.061
   0.791        -19.063
   0.793        -19.064
   0.795        -19.066
   0.797        -19.067
   0.799        -19.069
   0.802        -19.070
   0.804        -19.072
   0.806        -19.075
   0.808        -19.076
   0.810        -19.078
   0.812        -19.080
   0.815        -19.082
   0.817        -19.084
   0.819        -19.086
   0.821        -19.088
   0.823        -19.090
   0.825        -19.093
   0.828        -19.095
   0.830        -19.097
   0.832        -19.099
   0.834        -19.101
   0.836        -19.104
   0.838        -19.106
   0.841        -19.108
   0.843        -19.110
   0.845        -19.113
   0.847        -19.115
   0.849        -19.118
   0.852        -19.120
   0.854        -19.123
   0.856        -19.125
   0.858        -19.128
   0.860        -19.130
   0.862        -19.133
   0.865        -19.135
   0.867        -19.138
   0.869        -19.140
   0.871        -19.143
   0.873        -19.146
   0.875        -19.148
   0.878        -19.151
   0.880        -19.154
   0.882        -19.156
   0.884        -19.159
   0.886        -19.162
   0.888        -19.165
   0.891        -19.168
   0.893        -19.172
   0.895        -19.175
   0.897        -19.178
   0.899        -19.181
   0.901        -19.185
   0.904        -19.188
   0.906        -19.191
   0.908        -19.195
   0.910        -19.199
   0.912        -19.203
   0.915        -19.207
   0.917        -19.211
   0.919        -19.215
   0.921        -19.219
   0.923        -19.223
   0.925        -19.227
   0.928        -19.231
   0.930        -19.236
   0.932        -19.241
   0.934        -19.246
   0.936        -19.250
   0.938        -19.255
   0.941        -19.260
   0.943        -19.265
   0.945        -19.269
   0.947        -19.274
   0.949        -19.281
   0.951        -19.287
   0.954        -19.294
   0.956        -19.301
   0.958        -19.307
   0.960        -19.314
   0.962        -19.320
   0.964        -19.327
   0.967        -19.334
   0.969        -19.340
   0.971        -19.344
   0.973        -19.350
   0.975        -19.355
   0.977        -19.360
   0.980        -19.365
   0.982        -19.370
   0.984        -19.375
   0.986        -19.380
   0.988        -19.389
   0.990        -19.400
   0.993        -19.406
   0.995        -19.412
   0.997        -19.417
   0.999        -19.423
   1.001        -19.429
   1.004        -19.435
   1.006        -19.441
   1.008        -19.447
   1.010        -19.454
   1.012        -19.465
   1.014        -19.477
   1.017        -19.488
   1.019        -19.500
   1.021        -19.512
   1.023        -19.523
   1.025        -19.535
   1.027        -19.546
   1.030        -19.558
   1.032        -19.573
   1.034        -19.590
   1.036        -19.607
   1.038        -19.623
   1.040        -19.640
   1.043        -19.657
   1.045        -19.674
   1.047        -19.691
   1.049        -19.708
   1.051        -19.726
   1.053        -19.753
   1.056        -19.780
   1.058        -19.808
   1.060        -19.836
   1.062        -19.863
   1.064        -19.891
   1.066        -19.919
   1.069        -19.947
   1.071        -19.974
   1.073        -20.020
   1.075        -20.083
   1.077        -20.147
   1.079        -20.210
   1.082        -20.273
   1.084        -20.337
   1.086        -20.400
   1.088        -20.464
   1.090        -20.527
   1.093        -20.592
   1.095        -20.680
   1.097        -20.773
   1.099        -20.866
   1.101        -20.959
   1.103        -21.052
   1.106        -21.145
   1.108        -21.238
   1.110        -21.331
   1.112        -21.436
   1.114        -21.492
   1.117        -21.495
   1.119        -21.498
   1.121        -21.501
   1.123        -21.505
   1.125        -21.508
   1.127        -21.511
   1.129        -21.514
   1.131        -21.517
   1.134        -21.521
   1.136        -21.524
   1.138        -21.527
   1.140        -21.530
   1.143        -21.533
   1.145        -21.536
   1.147        -21.539
   1.149        -21.542
   1.151        -21.544
   1.153        -21.548
   1.155        -21.550
   1.158        -21.553
   1.160        -21.555
   1.162        -21.557
   1.164        -21.560
   1.166        -21.562
   1.169        -21.565
   1.171        -21.567
   1.173        -21.569
   1.175        -21.572
   1.177        -21.574
   1.180        -21.577
   1.181        -21.579
   1.184        -21.582
   1.186        -21.584
   1.188        -21.587
   1.190        -21.589
   1.192        -21.592
   1.195        -21.595
   1.197        -21.597
   1.199        -21.599
   1.201        -21.602
   1.203        -21.604
   1.205        -21.607
   1.208        -21.609
   1.210        -21.612
   1.212        -21.614
   1.214        -21.616
   1.216        -21.619
   1.218        -21.622
   1.220        -21.624
   1.223        -21.626
   1.225        -21.629
   1.227        -21.631
   1.229        -21.633
   1.232        -21.636
   1.234        -21.638
   1.236        -21.641
   1.238        -21.643
   1.240        -21.644
   1.242        -21.646
   1.245        -21.648
   1.247        -21.650
   1.249        -21.651
   1.251        -21.653
   1.253        -21.655
   1.255        -21.657
   1.258        -21.659
   1.260        -21.661
   1.262        -21.663
   1.264        -21.665
   1.266        -21.667
   1.268        -21.669
   1.270        -21.671
   1.273        -21.673
   1.275        -21.675
   1.277        -21.677
   1.279        -21.679
   1.281        -21.681
   1.284        -21.684
   1.286        -21.687
   1.288        -21.689
   1.290        -21.692
   1.292        -21.694
   1.294        -21.696
   1.297        -21.699
   1.299        -21.701
   1.301        -21.704
   1.303        -21.708
   1.305        -21.711
   1.307        -21.714
   1.310        -21.717
   1.312        -21.720
   1.314        -21.723
   1.316        -21.726
   1.318        -21.729
   1.320        -21.732
   1.323        -21.736
   1.325        -21.740
   1.327        -21.744
   1.329        -21.748
   1.331        -21.752
   1.334        -21.756
   1.336        -21.760
   1.338        -21.764
   1.340        -21.768
   1.342        -21.772
   1.344        -21.777
   1.346        -21.781
   1.349        -21.786
   1.351        -21.791
   1.353        -21.796
   1.355        -21.800
   1.357        -21.806
   1.359        -21.810
   1.362        -21.815
   1.364        -21.819
   1.366        -21.824
   1.368        -21.828
   1.370        -21.833
   1.373        -21.837
   1.375        -21.842
   1.377        -21.846
   1.379        -21.851
   1.381        -21.855
   1.383        -21.858
   1.386        -21.860
   1.388        -21.862
   1.390        -21.864
   1.392        -21.867
   1.394        -21.869
   1.397        -21.871
   1.399        -21.873
   1.401        -21.875
   1.403        -21.877
   1.405        -21.879
   1.407        -21.882
   1.410        -21.884
   1.412        -21.887
   1.414        -21.890
   1.416        -21.892
   1.418        -21.895
   1.420        -21.897
   1.423        -21.900
   1.425        -21.903
   1.427        -21.906
   1.429        -21.909
   1.431        -21.912
   1.433        -21.915
   1.436        -21.918
   1.438        -21.921
   1.440        -21.924
   1.442        -21.927
   1.444        -21.929
   1.446        -21.933
   1.449        -21.936
   1.451        -21.939
   1.453        -21.942
   1.455        -21.946
   1.457        -21.949
   1.460        -21.952
   1.462        -21.955
   1.464        -21.958
   1.466        -21.961
   1.468        -21.964
   1.470        -21.967
   1.472        -21.970
   1.475        -21.972
   1.477        -21.975
   1.479        -21.978
   1.481        -21.980
   1.483        -21.983
   1.486        -21.986
   1.488        -21.988
   1.490        -21.989
   1.492        -21.990
   1.494        -21.992
   1.496        -21.993
   1.498        -21.995
   1.501        -21.996
   1.503        -21.998
   1.505        -21.999
   1.507        -22.000
   1.509        -22.000
   1.512        -21.999
   1.514        -21.997
   1.516        -21.997
   1.518        -21.996
   1.520        -21.995
   1.522        -21.994
   1.525        -21.993
   1.527        -21.992
   1.529        -21.990
   1.531        -21.985
   1.533        -21.981
   1.535        -21.976
   1.538        -21.972
   1.540        -21.967
   1.542        -21.963
   1.544        -21.958
   1.546        -21.954
   1.549        -21.949
   1.551        -21.943
   1.553        -21.935
   1.555        -21.928
   1.557        -21.920
   1.559        -21.913
   1.561        -21.905
   1.564        -21.898
   1.566        -21.891
   1.568        -21.883
   1.570        -21.876
   1.572        -21.865
   1.575        -21.855
   1.577        -21.844
   1.579        -21.834
   1.581        -21.823
   1.583        -21.813
   1.585        -21.802
   1.588        -21.792
   1.590        -21.902
   1.592        -22.197
   1.594        -22.201
   1.596        -22.205
   1.598        -22.210
   1.601        -22.214
   1.603        -22.219
   1.605        -22.223
   1.607        -22.228
   1.609        -22.232
   1.611        -22.237
   1.614        -22.242
   1.616        -22.248
   1.618        -22.254
   1.620        -22.260
   1.622        -22.267
   1.624        -22.273
   1.627        -22.279
   1.629        -22.285
   1.631        -22.291
   1.633        -22.298
   1.635        -22.306
   1.637        -22.314
   1.640        -22.322
   1.642        -22.330
   1.644        -22.338
   1.646        -22.346
   1.648        -22.354
   1.651        -22.362
   1.653        -22.370
   1.655        -22.380
   1.657        -22.392
   1.659        -22.404
   1.661        -22.415
   1.664        -22.427
   1.666        -22.438
   1.668        -22.450
   1.670        -22.462
   1.672        -22.473
   1.674        -22.487
   1.676        -22.506
   1.679        -22.527
   1.681        -22.547
   1.683        -22.568
   1.685        -22.588
   1.687        -22.608
   1.690        -22.629
   1.692        -22.649
   1.694        -22.669
   1.696        -22.713
   1.699        -22.784
   1.701        -22.845
   1.703        -22.902
   1.705        -22.959
   1.707        -23.021
   1.709        -23.082
   1.711        -23.144
   1.714        -23.212
   1.716        -23.227
   1.718        -23.256
   1.720        -23.286
   1.722        -23.322
   1.724        -23.358
   1.727        -23.394
   1.729        -23.430
   1.731        -23.465
   1.733        -23.501
   1.735        -23.537
   1.737        -23.569
   1.739        -23.594
   1.742        -23.619
   1.744        -23.643
   1.746        -23.668
   1.748        -23.693
   1.750        -23.718
   1.753        -23.742
   1.755        -23.767
   1.757        -23.791
   1.759        -23.806
   1.761        -23.818
   1.763        -23.830
   1.766        -23.842
   1.768        -23.855
   1.770        -23.867
   1.772        -23.879
   1.774        -23.891
   1.776        -23.904
   1.779        -23.914
   1.781        -23.918
   1.783        -23.923
   1.785        -23.928
   1.787        -23.932
   1.789        -23.937
   1.792        -23.942
   1.794        -23.946
   1.796        -23.951
   1.798        -23.955
   1.800        -23.958
   1.802        -23.960
   1.805        -23.962
   1.807        -23.964
   1.809        -23.965
   1.811        -23.967
   1.813        -23.968
   1.816        -23.970
   1.818        -23.972
   1.820        -23.973
   1.822        -23.974
   1.824        -23.975
   1.826        -23.976
   1.829        -23.977
   1.831        -23.978
   1.833        -23.978
   1.835        -23.979
   1.837        -23.980
   1.839        -23.981
   1.842        -23.981
   1.844        -23.982
   1.846        -23.982
   1.848        -23.983
   1.850        -23.983
   1.852        -23.984
   1.855        -23.984
   1.857        -23.985
   1.859        -23.986
   1.861        -23.986
   1.863        -23.987
   1.865        -23.987
   1.868        -23.988
   1.870        -23.988
   1.872        -23.989
   1.874        -23.989
   1.876        -23.990
   1.878        -23.990
   1.881        -23.990
   1.883        -23.991
   1.885        -23.991
   1.887        -23.992
   1.889        -23.992
   1.891        -23.993
   1.894        -23.993
   1.896        -23.994
   1.898        -23.994
   1.900        -23.995
   1.902        -23.995
   1.905        -23.996
   1.907        -23.996
   1.909        -23.997
   1.911        -23.997
   1.913        -23.998
   1.915        -23.998
   1.918        -23.999
   1.920        -23.999
   1.922        -24.000
   1.924        -24.000
   1.926        -24.001
   1.928        -24.001
   1.931        -24.002
   1.933        -24.002
   1.935        -24.003
   1.937        -24.003
   1.939        -24.004
   1.941        -24.004
   1.944        -24.005
   1.946        -24.005
   1.948        -24.006
   1.950        -24.007
   1.952        -24.007
   1.954        -24.008
   1.957        -24.008
   1.959        -24.009
   1.961        -24.010
   1.963        -24.010
   1.965        -24.010
   1.967        -24.011
   1.970        -24.012
   1.972        -24.012
   1.974        -24.013
   1.976        -24.013
   1.978        -24.014
   1.980        -24.014
   1.983        -24.015
   1.985        -24.016
   1.987        -24.016
   1.989        -24.017
   1.991        -24.017
   1.993        -24.018
   1.996        -24.018
   1.998        -24.019
   2.000        -24.020
   2.002        -24.020
   2.004        -24.021
   2.007        -24.021
   2.009        -24.022
   2.011        -24.022
   2.013        -24.023
   2.015        -24.024
   2.017        -24.024
   2.020        -24.025
   2.022        -24.025
   2.024        -24.026
   2.026        -24.026
   2.028        -24.027
   2.030        -24.027
   2.033        -24.028
   2.035        -24.028
   2.037        -24.029
   2.039        -24.030
   2.041        -24.030
   2.043        -24.031
   2.046        -24.031
   2.048        -24.032
   2.050        -24.032
   2.052        -24.033
   2.054        -24.033
   2.056        -24.034
   2.059        -24.034
   2.061        -24.035
   2.063        -24.035
   2.065        -24.036
   2.067        -24.036
   2.069        -24.037
   2.072        -24.037
   2.074        -24.038
   2.076        -24.038
   2.078        -24.039
   2.080        -24.039
   2.083        -24.040
   2.085        -24.040
   2.087        -24.040
   2.089        -24.041
   2.091        -24.042
   2.093        -24.042
   2.096        -24.043
   2.098        -24.043
   2.100        -24.044
   2.102        -24.044
   2.104        -24.045
   2.106        -24.045
   2.109        -24.046
   2.111        -24.046
   2.113        -24.047
   2.115        -24.047
   2.117        -24.047
   2.120        -24.048
   2.122        -24.048
   2.124        -24.048
   2.126        -24.048
   2.128        -24.048
   2.130        -24.049
   2.133        -24.049
   2.135        -24.049
   2.137        -24.049
   2.139        -24.049
   2.141        -24.050
   2.143        -24.050
   2.145        -24.050
   2.148        -24.050
   2.150        -24.050
   2.152        -24.051
   2.154        -24.051
   2.157        -24.051
   2.158        -24.051
   2.161        -24.051
   2.163        -24.051
   2.165        -24.051
   2.167        -24.051
   2.169        -24.052
   2.172        -24.052
   2.174        -24.052
   2.176        -24.052
   2.178        -24.052
   2.180        -24.052
   2.183        -24.052
   2.185        -24.052
   2.187        -24.052
   2.189        -24.052
   2.191        -24.052
   2.193        -24.052
   2.195        -24.052
   2.197        -24.052
   2.200        -24.052
   2.202        -24.052
   2.204        -24.052
   2.206        -24.052
   2.208        -24.051
   2.211        -24.051
   2.213        -24.051
   2.215        -24.051
   2.217        -24.051
   2.219        -24.051
   2.221        -24.051
   2.224        -24.050
   2.226        -24.050
   2.228        -24.050
   2.230        -24.050
   2.232        -24.050
   2.235        -24.050
   2.237        -24.050
   2.239        -24.049
   2.241        -24.049
   2.243        -24.049
   2.245        -24.048
   2.247        -24.048
   2.250        -24.048
   2.252        -24.047
   2.254        -24.047
   2.256        -24.047
   2.259        -24.046
   2.261        -24.046
   2.263        -24.046
   2.265        -24.045
   2.267        -24.045
   2.269        -24.044
   2.271        -24.044
   2.274        -24.043
   2.276        -24.043
   2.278        -24.043
   2.280        -24.042
   2.282        -24.041
   2.284        -24.041
   2.287        -24.040
   2.289        -24.040
   2.291        -24.039
   2.293        -24.039
   2.295        -24.038
   2.297        -24.038
   2.299        -24.037
   2.302        -24.037
   2.304        -24.036
   2.306        -24.036
   2.308        -24.035
   2.310        -24.034
   2.313        -24.033
   2.315        -24.033
   2.317        -24.032
   2.319        -24.032
   2.321        -24.031
   2.323        -24.030
   2.326        -24.029
   2.328        -24.029
   2.330        -24.028
   2.332        -24.027
   2.334        -24.026
   2.337        -24.026
   2.339        -24.025
   2.341        -24.024
   2.343        -24.023
   2.345        -24.022
   2.347        -24.022
   2.349        -24.021
   2.352        -24.020
   2.354        -24.019
   2.356        -24.018
   2.358        -24.017
   2.360        -24.017
   2.363        -24.016
   2.365        -24.015
   2.367        -24.014
   2.369        -24.013
   2.371        -24.012
   2.374        -24.011
   2.376        -24.010
   2.378        -24.009
   2.380        -24.008
   2.382        -24.007
   2.384        -24.007
   2.386        -24.006
   2.389        -24.005
   2.391        -24.004
   2.393        -24.003
   2.395        -24.003
   2.397        -24.002
   2.400        -24.001
   2.402        -24.000
   2.404        -23.999
   2.406        -23.999
   2.408        -23.999
   2.410        -23.999
   2.413        -23.999
   2.415        -23.999
   2.417        -23.999
   2.419        -23.999
   2.421        -23.999
   2.423        -23.999
   2.425        -23.999
   2.428        -23.999
   2.430        -23.998
   2.432        -23.998
   2.434        -23.998
   2.436        -23.998
   2.439        -23.998
   2.441        -23.998
   2.443        -23.998
   2.445        -23.997
   2.447        -23.996
   2.449        -23.995
   2.452        -23.994
   2.454        -23.993
   2.456        -23.992
   2.458        -23.991
   2.460        -23.990
   2.462        -23.989
   2.465        -23.988
   2.467        -23.987
   2.469        -23.986
   2.471        -23.985
   2.473        -23.984
   2.475        -23.983
   2.478        -23.982
   2.480        -23.980
   2.482        -23.979
   2.484        -23.978
   2.486        -23.977
   2.489        -23.976
   2.491        -23.975
   2.493        -23.974
   2.495        -23.973
   2.497        -23.972
   2.499        -23.970
   2.502        -23.969
   2.504        -23.968
   2.506        -23.967
   2.508        -23.966
   2.510        -23.965
   2.512        -23.964
   2.514        -23.963
   2.517        -23.962
   2.519        -23.961
   2.521        -23.960
   2.523        -23.959
   2.525        -23.958
   2.528        -23.957
   2.530        -23.956
   2.532        -23.955
   2.534        -23.954
   2.536        -23.953
   2.538        -23.952
   2.541        -23.951
   2.543        -23.950
   2.545        -23.949
   2.547        -23.948
   2.549        -23.947
   2.552        -23.946
   2.554        -23.945
   2.556        -23.944
   2.558        -23.944
   2.560        -23.943
   2.562        -23.942
   2.565        -23.941
   2.567        -23.940
   2.569        -23.940
   2.571        -23.939
   2.573        -23.938
   2.575        -23.938
   2.578        -23.937
   2.580        -23.936
   2.582        -23.936
   2.584        -23.935
   2.586        -23.934
   2.588        -23.934
   2.590        -23.933
   2.593        -23.933
   2.595        -23.933
   2.597        -23.932
   2.599        -23.932
   2.601        -23.931
   2.604        -23.931
   2.606        -23.931
   2.608        -23.931
   2.610        -23.930
   2.612        -23.931
   2.614        -23.931
   2.617        -23.931
   2.619        -23.932
   2.621        -23.932
   2.623        -23.932
   2.625        -23.933
   2.627        -23.933
   2.630        -23.933
   2.632        -23.934
   2.634        -23.935
   2.636        -23.937
   2.638        -23.939
   2.641        -23.940
   2.643        -23.942
   2.645        -23.943
   2.647        -23.945
   2.649        -23.947
   2.651        -23.949
   2.654        -23.951
   2.656        -23.955
   2.658        -23.959
   2.660        -23.963
   2.662        -23.966
   2.664        -23.970
   2.666        -23.974
   2.669        -23.978
   2.671        -23.982
   2.673        -23.986
   2.675        -23.991
   2.677        -23.997
   2.680        -24.003
   2.682        -24.009
   2.684        -24.016
   2.686        -24.022
   2.688        -24.028
   2.690        -24.034
   2.693        -24.040
   2.695        -24.046
   2.697        -24.052
   2.699        -24.059
   2.701        -24.065
   2.703        -24.071
   2.706        -24.078
   2.708        -24.084
   2.710        -24.090
   2.712        -24.096
   2.714        -24.103
   2.716        -24.108
   2.719        -24.114
   2.721        -24.119
   2.723        -24.124
   2.725        -24.130
   2.727        -24.135
   2.729        -24.140
   2.732        -24.146
   2.734        -24.151
   2.736        -24.157
   2.738        -24.161
   2.740        -24.166
   2.743        -24.171
   2.745        -24.175
   2.747        -24.180
   2.749        -24.184
   2.751        -24.189
   2.753        -24.194
   2.756        -24.199
   2.758        -24.203
   2.760        -24.207
   2.762        -24.212
   2.764        -24.217
   2.766        -24.221
   2.769        -24.225
   2.771        -24.230
   2.773        -24.234
   2.775        -24.239
   2.777        -24.243
   2.779        -24.247
   2.782        -24.251
   2.784        -24.255
   2.786        -24.259
   2.788        -24.263
   2.790        -24.267
   2.792        -24.271
   2.795        -24.275
   2.797        -24.279
   2.799        -24.283
   2.801        -24.287
   2.803        -24.291
   2.805        -24.294
   2.808        -24.298
   2.810        -24.302
   2.812        -24.305
   2.814        -24.309
   2.816        -24.313
   2.819        -24.317
   2.821        -24.320
   2.823        -24.324
   2.825        -24.327
   2.827        -24.330
   2.829        -24.334
   2.832        -24.337
   2.834        -24.341
   2.836        -24.344
   2.838        -24.348
   2.840        -24.351
   2.842        -24.354
   2.845        -24.357
   2.847        -24.360
   2.849        -24.363
   2.851        -24.366
   2.853        -24.369
   2.855        -24.372
   2.858        -24.375
   2.860        -24.378
   2.862        -24.381
   2.864        -24.384
   2.866        -24.387
   2.868        -24.389
   2.871        -24.392
   2.873        -24.395
   2.875        -24.398
   2.877        -24.400
   2.879        -24.403
   2.881        -24.406
   2.884        -24.408
   2.886        -24.411
   2.888        -24.413
   2.890        -24.416
   2.892        -24.419
   2.894        -24.421
   2.897        -24.424
   2.899        -24.426
   2.901        -24.429
   2.903        -24.431
   2.905        -24.433
   2.908        -24.436
   2.910        -24.438
   2.912        -24.440
   2.914        -24.442
   2.916        -24.444
   2.918        -24.446
   2.921        -24.448
   2.923        -24.451
   2.925        -24.452
   2.927        -24.454
   2.929        -24.456
   2.931        -24.458
   2.934        -24.459
   2.936        -24.461
   2.938        -24.463
   2.940        -24.465
   2.942        -24.466
   2.944        -24.468
   2.947        -24.469
   2.949        -24.471
   2.951        -24.473
   2.953        -24.474
   2.955        -24.476
   2.957        -24.477
   2.960        -24.479
   2.962        -24.480
   2.964        -24.482
   2.966        -24.483
   2.968        -24.485
   2.970        -24.486
   2.973        -24.487
   2.975        -24.489
   2.977        -24.490
   2.979        -24.492
   2.981        -24.493
   2.984        -24.494
   2.986        -24.496
   2.988        -24.497
   2.990        -24.498
   2.992        -24.500
   2.994        -24.501
   2.997        -24.502
   2.999        -24.504
   3.001        -24.505
   3.003        -24.506
   3.005        -24.508
   3.007        -24.509
   3.010        -24.510
   3.012        -24.511
   3.014        -24.513
   3.016        -24.514
   3.018        -24.515
   3.020        -24.516
   3.023        -24.518
   3.025        -24.519
   3.027        -24.520
   3.029        -24.521
   3.031        -24.523
   3.033        -24.524
   3.036        -24.525
   3.038        -24.526
   3.040        -24.527
   3.042        -24.529
   3.044        -24.530
   3.046        -24.531
   3.049        -24.532
   3.051        -24.534
   3.053        -24.535
   3.055        -24.536
   3.057        -24.537
   3.060        -24.538
   3.062        -24.540
   3.064        -24.541
   3.066        -24.542
   3.068        -24.543
   3.070        -24.544
   3.073        -24.545
   3.075        -24.547
   3.077        -24.548
   3.079        -24.549
   3.081        -24.550
   3.083        -24.551
   3.086        -24.552
   3.088        -24.554
   3.090        -24.555
   3.092        -24.556
   3.094        -24.557
   3.096        -24.558
   3.099        -24.559
   3.101        -24.560
   3.103        -24.561
   3.105        -24.562
   3.107        -24.563
   3.109        -24.564
   3.112        -24.566
   3.114        -24.567
   3.116        -24.568
   3.118        -24.569
   3.120        -24.570
   3.123        -24.571
   3.125        -24.572
   3.127        -24.573
   3.129        -24.574
   3.131        -24.575
   3.133        -24.576
   3.136        -24.577
   3.138        -24.578
   3.140        -24.579
   3.142        -24.580
   3.144        -24.581
   3.146        -24.582
   3.149        -24.583
   3.151        -24.584
   3.153        -24.585
   3.155        -24.586
   3.157        -24.587
   3.159        -24.588
   3.162        -24.590
   3.164        -24.590
   3.166        -24.592
   3.168        -24.593
   3.170        -24.594
   3.172        -24.595
   3.175        -24.596
   3.177        -24.597
   3.179        -24.598
   3.181        -24.600
   3.183        -24.601
   3.185        -24.602
   3.188        -24.603
   3.190        -24.604
   3.192        -24.605
   3.194        -24.606
   3.196        -24.608
   3.199        -24.609
   3.201        -24.610
   3.203        -24.611
   3.205        -24.612
   3.207        -24.613
   3.209        -24.614
   3.212        -24.615
   3.214        -24.617
   3.216        -24.618
   3.218        -24.619
   3.220        -24.620
   3.222        -24.621
   3.225        -24.622
   3.227        -24.623
   3.229        -24.624
   3.231        -24.625
   3.233        -24.626
   3.236        -24.627
   3.237        -24.628
   3.240        -24.629
   3.242        -24.630
   3.244        -24.631
   3.246        -24.632
   3.248        -24.633
   3.251        -24.634
   3.253        -24.634
   3.255        -24.635
   3.257        -24.636
   3.259        -24.637
   3.261        -24.637
   3.263        -24.638
   3.266        -24.639
   3.268        -24.640
   3.270        -24.641
   3.272        -24.641
   3.274        -24.642
   3.277        -24.643
   3.279        -24.643
   3.281        -24.644
   3.283        -24.644
   3.285        -24.645
   3.287        -24.646
   3.290        -24.646
   3.292        -24.647
   3.294        -24.648
   3.296        -24.648
   3.298        -24.649
   3.301        -24.650
   3.303        -24.651
   3.305        -24.653
   3.307        -24.654
   3.309        -24.655
   3.311        -24.656
   3.313        -24.657
   3.316        -24.659
   3.318        -24.660
   3.320        -24.661
   3.322        -24.662
   3.324        -24.664
   3.327        -24.665
   3.329        -24.667
   3.331        -24.668
   3.333        -24.669
   3.335        -24.670
   3.337        -24.672
   3.340        -24.673
   3.342        -24.674
   3.344        -24.675
   3.346        -24.677
   3.348        -24.678
   3.350        -24.679
   3.352        -24.680
   3.355        -24.681
   3.357        -24.682
   3.359        -24.684
   3.361        -24.685
   3.363        -24.686
   3.366        -24.687
   3.368        -24.688
   3.370        -24.689
   3.372        -24.691
   3.374        -24.692
   3.376        -24.693
   3.379        -24.694
   3.381        -24.695
   3.383        -24.696
   3.385        -24.697
   3.387        -24.699
   3.389        -24.700
   3.392        -24.701
   3.394        -24.702
   3.396        -24.703
   3.398        -24.704
   3.400        -24.705
   3.402        -24.706
   3.405        -24.707
   3.407        -24.709
   3.409        -24.710
   3.411        -24.711
   3.413        -24.712
   3.416        -24.713
   3.418        -24.714
   3.420        -24.715
   3.422        -24.716
   3.424        -24.717
   3.426        -24.718
   3.429        -24.719
   3.431        -24.720
   3.433        -24.721
   3.435        -24.723
   3.437        -24.724
   3.439        -24.725
   3.442        -24.726
   3.444        -24.727
   3.446        -24.728
   3.448        -24.729
   3.450        -24.730
   3.452        -24.731
   3.455        -24.732
   3.457        -24.733
   3.459        -24.734
   3.461        -24.735
   3.463        -24.736
   3.466        -24.738
   3.468        -24.739
   3.470        -24.739
   3.472        -24.741
   3.474        -24.742
   3.476        -24.743
   3.478        -24.744
   3.481        -24.745
   3.483        -24.746
   3.485        -24.747
   3.487        -24.748
   3.489        -24.749
   3.492        -24.750
   3.494        -24.751
   3.496        -24.752
   3.498        -24.753
   3.500        -24.754
   3.502        -24.755
   3.505        -24.756
   3.507        -24.757
   3.509        -24.758
   3.511        -24.759
   3.513        -24.760
   3.515        -24.761
   3.518        -24.762
   3.520        -24.763
   3.522        -24.764
   3.524        -24.765
   3.526        -24.766
   3.528        -24.767
   3.531        -24.768
   3.533        -24.769
   3.535        -24.770
   3.537        -24.771
   3.539        -24.772
   3.541        -24.773
   3.544        -24.774
   3.546        -24.775
   3.548        -24.776
   3.550        -24.777
   3.552        -24.778
   3.555        -24.779
   3.557        -24.780
   3.559        -24.781
   3.561        -24.782
   3.563        -24.783
   3.565        -24.784
   3.568        -24.785
   3.570        -24.785
   3.572        -24.786
   3.574        -24.787
   3.576        -24.788
   3.578        -24.789
   3.581        -24.790
   3.583        -24.791
   3.585        -24.792
   3.587        -24.793
   3.589        -24.794
   3.591        -24.795
   3.594        -24.795
   3.596        -24.796
   3.598        -24.797
   3.600        -24.798
   3.602        -24.799
   3.604        -24.800
   3.607        -24.801
   3.609        -24.801
   3.611        -24.802
   3.613        -24.803
   3.615        -24.804
   3.617        -24.805
   3.620        -24.806
   3.622        -24.806
   3.624        -24.807
   3.626        -24.808
   3.628        -24.809
   3.630        -24.810
   3.633        -24.811
   3.635        -24.811
   3.637        -24.812
   3.639        -24.813
   3.641        -24.814
   3.644        -24.815
   3.646        -24.816
   3.648        -24.816
   3.650        -24.817
   3.652        -24.818
   3.654        -24.819
   3.657        -24.820
   3.659        -24.820
   3.661        -24.821
   3.663        -24.822
   3.665        -24.823
   3.667        -24.823
   3.670        -24.824
   3.672        -24.825
   3.674        -24.826
   3.676        -24.827
   3.678        -24.827
   3.680        -24.828
   3.683        -24.829
   3.685        -24.830
   3.687        -24.831
   3.689        -24.831
   3.691        -24.832
   3.693        -24.833
   3.696        -24.834
   3.698        -24.835
   3.700        -24.835
   3.702        -24.836
   3.704        -24.837
   3.706        -24.838
   3.709        -24.838
   3.711        -24.839
   3.713        -24.840
   3.715        -24.841
   3.717        -24.841
   3.719        -24.842
   3.722        -24.843
   3.724        -24.844
   3.726        -24.845
   3.728        -24.846
   3.730        -24.847
   3.733        -24.847
   3.735        -24.848
   3.737        -24.849
   3.739        -24.850
   3.741        -24.852
   3.743        -24.853
   3.746        -24.854
   3.748        -24.855
   3.750        -24.856
   3.752        -24.857
   3.754        -24.858
   3.756        -24.859
   3.759        -24.861
   3.761        -24.862
   3.763        -24.864
   3.765        -24.866
   3.767        -24.867
   3.769        -24.869
   3.772        -24.871
   3.774        -24.872
   3.776        -24.874
   3.778        -24.876
   3.780        -24.878
   3.782        -24.879
   3.785        -24.882
   3.787        -24.883
   3.789        -24.886
   3.791        -24.887
   3.793        -24.889
   3.795        -24.891
   3.798        -24.893
   3.800        -24.895
   3.802        -24.897
   3.804        -24.900
   3.806        -24.902
   3.809        -24.904
   3.811        -24.906
   3.813        -24.908
   3.815        -24.910
   3.817        -24.913
   3.819        -24.915
   3.822        -24.917
   3.824        -24.919
   3.826        -24.921
   3.828        -24.923
   3.830        -24.925
   3.832        -24.927
   3.835        -24.930
   3.837        -24.932
   3.839        -24.934
   3.841        -24.935
   3.843        -24.937
   3.845        -24.938
   3.848        -24.939
   3.850        -24.941
   3.852        -24.942
   3.854        -24.944
   3.856        -24.945
   3.858        -24.946
   3.861        -24.947
   3.863        -24.948
   3.865        -24.949
   3.867        -24.950
   3.869        -24.951
   3.871        -24.951
   3.874        -24.952
   3.876        -24.953
   3.878        -24.954
   3.880        -24.954
   3.882        -24.955
   3.885        -24.956
   3.887        -24.956
   3.889        -24.958
   3.891        -24.958
   3.899        -24.961
   3.912        -24.965
   3.925        -24.970
   3.938        -24.974
   3.951        -24.978
   3.964        -24.982
   3.977        -24.986
   3.990        -24.990
   4.003        -24.994
   4.016        -24.998
   4.029        -25.002
   4.042        -25.006
   4.055        -25.010
   4.068        -25.014
   4.081        -25.018
   4.094        -25.022
   4.107        -25.026
   4.120        -25.029
   4.133        -25.033
   4.146        -25.036
   4.159        -25.039
   4.172        -25.042
   4.185        -25.045
   4.198        -25.048
   4.211        -25.051
   4.224        -25.054
   4.237        -25.058
   4.250        -25.062
   4.263        -25.066
   4.276        -25.071
   4.289        -25.076
   4.302        -25.082
   4.315        -25.088
   4.328        -25.095
   4.341        -25.102
   4.354        -25.109
   4.367        -25.118
   4.380        -25.126
   4.393        -25.136
   4.406        -25.145
   4.420        -25.155
   4.432        -25.166
   4.445        -25.177
   4.459        -25.188
   4.471        -25.199
   4.484        -25.211
   4.498        -25.223
   4.510        -25.235
   4.524        -25.248
   4.537        -25.260
   4.550        -25.273
   4.563        -25.287
   4.576        -25.300
   4.589        -25.314
   4.602        -25.327
   4.615        -25.341
   4.628        -25.355
   4.641        -25.370
   4.654        -25.384
   4.667        -25.399
   4.680        -25.413
   4.693        -25.428
   4.706        -25.444
   4.719        -25.459
   4.732        -25.474
   4.745        -25.490
   4.758        -25.505
   4.771        -25.521
   4.784        -25.537
   4.797        -25.553
   4.810        -25.569
   4.823        -25.586
   4.836        -25.602
   4.849        -25.619
   4.862        -25.636
   4.875        -25.653
   4.888        -25.670
   4.901        -25.687
   4.914        -25.704
   4.927        -25.722
   4.940        -25.740
   4.953        -25.757
   4.966        -25.775
   4.979        -25.794
   4.992        -25.812
   5.005        -25.830
   5.018        -25.849
   5.031        -25.867
   5.044        -25.886
   5.057        -25.906
   5.070        -25.925
   5.083        -25.944
   5.096        -25.964
   5.109        -25.983
   5.123        -26.003
   5.136        -26.023
   5.149        -26.043
   5.162        -26.063
   5.175        -26.083
   5.188        -26.103
   5.201        -26.123
   5.214        -26.143
   5.227        -26.163
   5.240        -26.183
   5.253        -26.203
   5.266        -26.224
   5.279        -26.244
   5.292        -26.264
   5.305        -26.285
   5.318        -26.305
   5.331        -26.326
   5.344        -26.346
   5.357        -26.367
   5.370        -26.388
   5.383        -26.409
   5.396        -26.430
   5.409        -26.452
   5.422        -26.473
   5.435        -26.495
   5.448        -26.517
   5.461        -26.540
   5.474        -26.562
   5.487        -26.585
   5.500        -26.608
   5.513        -26.631
   5.526        -26.654
   5.539        -26.678
   5.552        -26.703
   5.565        -26.727
   5.578        -26.752
   5.591        -26.777
   5.604        -26.802
   5.617        -26.828
   5.630        -26.854
   5.643        -26.881
   5.656        -26.908
   5.669        -26.935
   5.682        -26.963
   5.695        -26.991
   5.708        -27.019
   5.721        -27.048
   5.734        -27.078
   5.748        -27.108
   5.761        -27.139
   5.774        -27.170
   5.787        -27.201
   5.800        -27.234
   5.813        -27.266
   5.826        -27.300
   5.839        -27.334
   5.852        -27.368
   5.865        -27.404
   5.878        -27.440
   5.891        -27.477
   5.904        -27.515
   5.917        -27.553
   5.930        -27.592
   5.943        -27.632
   5.956        -27.672
   5.969        -27.713
   5.982        -27.755
   5.995        -27.799
   6.008        -27.843
   6.021        -27.889
   6.034        -27.934
   6.047        -27.981
   6.060        -28.030
   6.073        -28.079
   6.086        -28.129
   6.099        -28.181
   6.112        -28.234
   6.125        -28.288
   6.138        -28.343
   6.151        -28.399
   6.164        -28.457
   6.177        -28.516
   6.190        -28.576
   6.203        -28.639
   6.216        -28.702
   6.229        -28.767
   6.242        -28.834
   6.255        -28.902
   6.268        -28.973
   6.281        -29.045
   6.294        -29.118
   6.307        -29.192
   6.320        -29.269
   6.334        -29.349
   6.346        -29.430
   6.359        -29.513
   6.372        -29.598
   6.386        -29.686
   6.399        -29.776
   6.411        -29.868
   6.425        -29.963
   6.438        -30.061
   6.451        -30.160
   6.464        -30.261
   6.477        -30.364
   6.490        -30.471
   6.503        -30.583
   6.516        -30.696
   6.529        -30.811
   6.542        -30.931
   6.555        -31.054
   6.568        -31.180
   6.581        -31.308
   6.594        -31.441
   6.607        -31.580
   6.620        -31.720
   6.633        -31.862
   6.646        -32.006
   6.659        -32.157
   6.672        -32.314
   6.685        -32.473
   6.698        -32.636
   6.711        -32.805
   6.724        -32.980
   6.737        -33.157
   6.750        -33.336
   6.763        -33.528
   6.776        -33.727
   6.789        -33.925
   6.802        -34.127
   6.815        -34.337
   6.828        -34.576
   6.841        -34.835
   6.854        -35.134
   6.867        -35.762
   6.880        -36.815
   6.893        -40.550
