# log Energy    log Jnu
# (eV)          (ergs/s/cm2/Hz/Sr)
  -6.864        -20.375
  -6.820        -20.288
  -6.777        -20.201
  -6.734        -20.114
  -6.690        -20.028
  -6.647        -19.941
  -6.603        -19.854
  -6.560        -19.767
  -6.516        -19.680
  -6.473        -19.593
  -6.430        -19.506
  -6.386        -19.419
  -6.343        -19.333
  -6.299        -19.246
  -6.256        -19.159
  -6.212        -19.072
  -6.169        -18.985
  -6.126        -18.898
  -6.082        -18.812
  -6.039        -18.725
  -5.995        -18.638
  -5.952        -18.551
  -5.908        -18.464
  -5.865        -18.378
  -5.822        -18.291
  -5.778        -18.204
  -5.735        -18.117
  -5.691        -18.030
  -5.648        -17.943
  -5.605        -17.856
  -5.561        -17.770
  -5.518        -17.683
  -5.474        -17.596
  -5.431        -17.509
  -5.387        -17.423
  -5.344        -17.336
  -5.300        -17.249
  -5.257        -17.162
  -5.214        -17.076
  -5.170        -16.989
  -5.127        -16.902
  -5.083        -16.816
  -5.040        -16.729
  -4.996        -16.642
  -4.953        -16.556
  -4.910        -16.469
  -4.866        -16.383
  -4.823        -16.296
  -4.779        -16.210
  -4.736        -16.123
  -4.692        -16.037
  -4.649        -15.951
  -4.606        -15.864
  -4.562        -15.778
  -4.519        -15.692
  -4.475        -15.606
  -4.432        -15.520
  -4.388        -15.434
  -4.345        -15.348
  -4.302        -15.262
  -4.258        -15.177
  -4.215        -15.091
  -4.171        -15.006
  -4.128        -14.921
  -4.084        -14.836
  -4.041        -14.751
  -3.998        -14.667
  -3.954        -14.583
  -3.911        -14.499
  -3.867        -14.415
  -3.824        -14.332
  -3.781        -14.249
  -3.737        -14.166
  -3.693        -14.084
  -3.650        -14.003
  -3.607        -13.923
  -3.584        -13.884
  -3.582        -13.874
  -3.580        -13.872
  -3.577        -13.869
  -3.575        -13.865
  -3.573        -13.861
  -3.571        -13.857
  -3.569        -13.853
  -3.567        -13.849
  -3.564        -13.845
  -3.562        -13.841
  -3.560        -13.837
  -3.558        -13.833
  -3.556        -13.829
  -3.554        -13.825
  -3.551        -13.821
  -3.549        -13.818
  -3.547        -13.813
  -3.545        -13.809
  -3.543        -13.806
  -3.540        -13.801
  -3.538        -13.798
  -3.536        -13.794
  -3.534        -13.790
  -3.532        -13.786
  -3.530        -13.782
  -3.528        -13.778
  -3.525        -13.774
  -3.523        -13.770
  -3.521        -13.766
  -3.519        -13.762
  -3.517        -13.758
  -3.514        -13.754
  -3.512        -13.750
  -3.510        -13.746
  -3.508        -13.742
  -3.506        -13.738
  -3.504        -13.734
  -3.502        -13.730
  -3.499        -13.726
  -3.497        -13.722
  -3.495        -13.718
  -3.493        -13.715
  -3.491        -13.711
  -3.488        -13.707
  -3.486        -13.703
  -3.484        -13.699
  -3.482        -13.695
  -3.480        -13.691
  -3.477        -13.687
  -3.475        -13.683
  -3.473        -13.679
  -3.471        -13.675
  -3.469        -13.671
  -3.467        -13.667
  -3.464        -13.664
  -3.462        -13.660
  -3.460        -13.656
  -3.458        -13.652
  -3.456        -13.648
  -3.454        -13.644
  -3.451        -13.640
  -3.449        -13.636
  -3.447        -13.632
  -3.445        -13.629
  -3.443        -13.625
  -3.441        -13.621
  -3.438        -13.617
  -3.436        -13.613
  -3.434        -13.609
  -3.432        -13.605
  -3.430        -13.601
  -3.428        -13.598
  -3.425        -13.594
  -3.423        -13.590
  -3.421        -13.586
  -3.419        -13.582
  -3.417        -13.578
  -3.415        -13.574
  -3.412        -13.571
  -3.410        -13.567
  -3.408        -13.563
  -3.406        -13.559
  -3.404        -13.555
  -3.402        -13.551
  -3.399        -13.548
  -3.397        -13.544
  -3.395        -13.540
  -3.393        -13.536
  -3.391        -13.532
  -3.389        -13.529
  -3.386        -13.525
  -3.384        -13.521
  -3.382        -13.517
  -3.380        -13.513
  -3.378        -13.510
  -3.376        -13.506
  -3.373        -13.502
  -3.371        -13.498
  -3.369        -13.494
  -3.367        -13.491
  -3.365        -13.487
  -3.362        -13.483
  -3.360        -13.479
  -3.358        -13.476
  -3.356        -13.472
  -3.354        -13.468
  -3.352        -13.464
  -3.349        -13.460
  -3.347        -13.457
  -3.345        -13.453
  -3.343        -13.449
  -3.341        -13.446
  -3.339        -13.442
  -3.336        -13.438
  -3.334        -13.434
  -3.332        -13.431
  -3.330        -13.427
  -3.328        -13.423
  -3.326        -13.419
  -3.323        -13.416
  -3.321        -13.412
  -3.319        -13.408
  -3.317        -13.404
  -3.315        -13.401
  -3.313        -13.397
  -3.310        -13.393
  -3.308        -13.390
  -3.306        -13.386
  -3.304        -13.382
  -3.302        -13.379
  -3.300        -13.375
  -3.297        -13.371
  -3.295        -13.368
  -3.293        -13.364
  -3.291        -13.360
  -3.289        -13.357
  -3.287        -13.353
  -3.284        -13.349
  -3.282        -13.346
  -3.280        -13.342
  -3.278        -13.338
  -3.276        -13.335
  -3.273        -13.331
  -3.271        -13.328
  -3.269        -13.324
  -3.267        -13.320
  -3.265        -13.317
  -3.263        -13.313
  -3.260        -13.309
  -3.258        -13.306
  -3.256        -13.302
  -3.254        -13.299
  -3.252        -13.295
  -3.250        -13.291
  -3.247        -13.288
  -3.245        -13.284
  -3.243        -13.281
  -3.241        -13.277
  -3.239        -13.273
  -3.237        -13.270
  -3.234        -13.266
  -3.232        -13.263
  -3.230        -13.259
  -3.228        -13.256
  -3.226        -13.252
  -3.224        -13.248
  -3.221        -13.245
  -3.219        -13.241
  -3.217        -13.238
  -3.215        -13.234
  -3.213        -13.231
  -3.211        -13.227
  -3.208        -13.224
  -3.206        -13.220
  -3.204        -13.217
  -3.202        -13.213
  -3.200        -13.210
  -3.197        -13.206
  -3.195        -13.203
  -3.193        -13.200
  -3.191        -13.196
  -3.189        -13.192
  -3.187        -13.189
  -3.184        -13.186
  -3.182        -13.182
  -3.180        -13.179
  -3.178        -13.175
  -3.176        -13.172
  -3.174        -13.168
  -3.171        -13.165
  -3.169        -13.161
  -3.167        -13.158
  -3.165        -13.155
  -3.163        -13.151
  -3.161        -13.148
  -3.158        -13.144
  -3.156        -13.141
  -3.154        -13.138
  -3.152        -13.134
  -3.150        -13.131
  -3.148        -13.127
  -3.145        -13.124
  -3.143        -13.121
  -3.141        -13.118
  -3.139        -13.114
  -3.137        -13.111
  -3.135        -13.107
  -3.132        -13.104
  -3.130        -13.101
  -3.128        -13.097
  -3.126        -13.094
  -3.124        -13.091
  -3.122        -13.087
  -3.119        -13.084
  -3.117        -13.081
  -3.115        -13.078
  -3.113        -13.074
  -3.111        -13.071
  -3.108        -13.068
  -3.106        -13.065
  -3.104        -13.061
  -3.102        -13.058
  -3.100        -13.055
  -3.098        -13.052
  -3.095        -13.048
  -3.093        -13.045
  -3.091        -13.042
  -3.089        -13.039
  -3.087        -13.035
  -3.085        -13.032
  -3.082        -13.029
  -3.080        -13.026
  -3.078        -13.023
  -3.076        -13.020
  -3.074        -13.016
  -3.072        -13.013
  -3.069        -13.010
  -3.067        -13.007
  -3.065        -13.004
  -3.063        -13.001
  -3.061        -12.998
  -3.059        -12.994
  -3.056        -12.991
  -3.054        -12.988
  -3.052        -12.985
  -3.050        -12.982
  -3.048        -12.979
  -3.046        -12.976
  -3.043        -12.973
  -3.041        -12.970
  -3.039        -12.967
  -3.037        -12.964
  -3.035        -12.961
  -3.032        -12.958
  -3.030        -12.954
  -3.028        -12.952
  -3.026        -12.948
  -3.024        -12.946
  -3.022        -12.942
  -3.019        -12.939
  -3.017        -12.936
  -3.015        -12.934
  -3.013        -12.931
  -3.011        -12.928
  -3.009        -12.925
  -3.006        -12.922
  -3.004        -12.919
  -3.002        -12.916
  -3.000        -12.913
  -2.998        -12.910
  -2.996        -12.907
  -2.993        -12.904
  -2.991        -12.901
  -2.989        -12.899
  -2.987        -12.896
  -2.985        -12.893
  -2.983        -12.890
  -2.980        -12.887
  -2.978        -12.884
  -2.976        -12.881
  -2.974        -12.879
  -2.972        -12.876
  -2.970        -12.873
  -2.967        -12.870
  -2.965        -12.867
  -2.963        -12.865
  -2.961        -12.862
  -2.959        -12.859
  -2.956        -12.856
  -2.954        -12.854
  -2.952        -12.851
  -2.950        -12.848
  -2.948        -12.846
  -2.946        -12.843
  -2.944        -12.840
  -2.941        -12.837
  -2.939        -12.835
  -2.937        -12.832
  -2.935        -12.830
  -2.933        -12.827
  -2.930        -12.824
  -2.928        -12.822
  -2.926        -12.819
  -2.924        -12.816
  -2.922        -12.814
  -2.920        -12.811
  -2.917        -12.809
  -2.915        -12.806
  -2.913        -12.804
  -2.911        -12.801
  -2.909        -12.799
  -2.907        -12.796
  -2.904        -12.794
  -2.902        -12.791
  -2.900        -12.789
  -2.898        -12.786
  -2.896        -12.784
  -2.894        -12.781
  -2.891        -12.779
  -2.889        -12.776
  -2.887        -12.774
  -2.885        -12.772
  -2.883        -12.769
  -2.880        -12.767
  -2.878        -12.764
  -2.876        -12.762
  -2.874        -12.760
  -2.872        -12.757
  -2.870        -12.755
  -2.867        -12.753
  -2.865        -12.750
  -2.863        -12.748
  -2.861        -12.746
  -2.859        -12.744
  -2.857        -12.741
  -2.855        -12.739
  -2.852        -12.737
  -2.850        -12.735
  -2.848        -12.733
  -2.846        -12.730
  -2.843        -12.728
  -2.842        -12.726
  -2.839        -12.724
  -2.837        -12.722
  -2.835        -12.720
  -2.833        -12.718
  -2.831        -12.715
  -2.828        -12.713
  -2.826        -12.711
  -2.824        -12.709
  -2.822        -12.707
  -2.820        -12.705
  -2.817        -12.703
  -2.815        -12.701
  -2.813        -12.699
  -2.811        -12.697
  -2.809        -12.695
  -2.807        -12.693
  -2.805        -12.691
  -2.802        -12.690
  -2.800        -12.688
  -2.798        -12.686
  -2.796        -12.684
  -2.794        -12.682
  -2.792        -12.680
  -2.789        -12.678
  -2.787        -12.676
  -2.785        -12.675
  -2.783        -12.673
  -2.781        -12.671
  -2.779        -12.670
  -2.776        -12.668
  -2.774        -12.666
  -2.772        -12.664
  -2.770        -12.663
  -2.767        -12.661
  -2.765        -12.659
  -2.763        -12.658
  -2.761        -12.656
  -2.759        -12.654
  -2.757        -12.653
  -2.754        -12.651
  -2.753        -12.650
  -2.750        -12.648
  -2.748        -12.647
  -2.746        -12.645
  -2.744        -12.644
  -2.741        -12.642
  -2.739        -12.641
  -2.737        -12.639
  -2.735        -12.638
  -2.733        -12.637
  -2.731        -12.635
  -2.729        -12.634
  -2.726        -12.632
  -2.724        -12.631
  -2.722        -12.630
  -2.720        -12.629
  -2.718        -12.627
  -2.716        -12.626
  -2.713        -12.625
  -2.711        -12.624
  -2.709        -12.622
  -2.707        -12.621
  -2.705        -12.620
  -2.703        -12.619
  -2.700        -12.618
  -2.698        -12.617
  -2.696        -12.616
  -2.694        -12.615
  -2.692        -12.614
  -2.689        -12.613
  -2.687        -12.611
  -2.685        -12.611
  -2.683        -12.610
  -2.681        -12.609
  -2.679        -12.608
  -2.677        -12.607
  -2.674        -12.606
  -2.672        -12.605
  -2.670        -12.604
  -2.668        -12.603
  -2.666        -12.603
  -2.663        -12.602
  -2.661        -12.601
  -2.659        -12.600
  -2.657        -12.600
  -2.655        -12.599
  -2.653        -12.599
  -2.650        -12.598
  -2.648        -12.597
  -2.646        -12.597
  -2.644        -12.596
  -2.642        -12.596
  -2.640        -12.595
  -2.637        -12.595
  -2.635        -12.594
  -2.633        -12.594
  -2.631        -12.593
  -2.629        -12.593
  -2.626        -12.593
  -2.624        -12.592
  -2.622        -12.592
  -2.620        -12.591
  -2.618        -12.591
  -2.616        -12.591
  -2.614        -12.591
  -2.611        -12.591
  -2.609        -12.590
  -2.607        -12.590
  -2.605        -12.590
  -2.603        -12.590
  -2.600        -12.590
  -2.598        -12.590
  -2.596        -12.590
  -2.594        -12.590
  -2.592        -12.590
  -2.590        -12.590
  -2.587        -12.590
  -2.585        -12.591
  -2.583        -12.591
  -2.581        -12.591
  -2.579        -12.591
  -2.577        -12.591
  -2.574        -12.592
  -2.572        -12.592
  -2.570        -12.592
  -2.568        -12.593
  -2.566        -12.593
  -2.564        -12.593
  -2.561        -12.594
  -2.559        -12.594
  -2.557        -12.595
  -2.555        -12.595
  -2.553        -12.596
  -2.551        -12.596
  -2.548        -12.597
  -2.546        -12.598
  -2.544        -12.598
  -2.542        -12.599
  -2.540        -12.600
  -2.538        -12.601
  -2.535        -12.601
  -2.533        -12.602
  -2.531        -12.603
  -2.529        -12.604
  -2.527        -12.605
  -2.525        -12.606
  -2.522        -12.607
  -2.520        -12.608
  -2.518        -12.609
  -2.516        -12.610
  -2.514        -12.611
  -2.511        -12.612
  -2.509        -12.614
  -2.507        -12.615
  -2.505        -12.616
  -2.503        -12.617
  -2.501        -12.619
  -2.498        -12.620
  -2.496        -12.622
  -2.494        -12.623
  -2.492        -12.624
  -2.490        -12.626
  -2.488        -12.628
  -2.485        -12.629
  -2.483        -12.631
  -2.481        -12.632
  -2.479        -12.634
  -2.477        -12.636
  -2.475        -12.638
  -2.472        -12.639
  -2.470        -12.641
  -2.468        -12.643
  -2.466        -12.645
  -2.464        -12.647
  -2.462        -12.649
  -2.459        -12.651
  -2.457        -12.653
  -2.455        -12.655
  -2.453        -12.658
  -2.451        -12.660
  -2.448        -12.662
  -2.446        -12.664
  -2.444        -12.667
  -2.442        -12.669
  -2.440        -12.671
  -2.438        -12.674
  -2.435        -12.676
  -2.433        -12.679
  -2.431        -12.681
  -2.429        -12.684
  -2.427        -12.687
  -2.425        -12.689
  -2.422        -12.692
  -2.420        -12.695
  -2.418        -12.698
  -2.416        -12.701
  -2.414        -12.704
  -2.412        -12.707
  -2.409        -12.710
  -2.407        -12.713
  -2.405        -12.716
  -2.403        -12.719
  -2.401        -12.722
  -2.398        -12.725
  -2.396        -12.729
  -2.394        -12.732
  -2.392        -12.735
  -2.390        -12.739
  -2.388        -12.742
  -2.386        -12.746
  -2.383        -12.749
  -2.381        -12.753
  -2.379        -12.757
  -2.377        -12.760
  -2.375        -12.764
  -2.372        -12.768
  -2.370        -12.772
  -2.368        -12.776
  -2.366        -12.780
  -2.364        -12.784
  -2.362        -12.788
  -2.359        -12.792
  -2.357        -12.796
  -2.355        -12.800
  -2.353        -12.805
  -2.351        -12.809
  -2.349        -12.813
  -2.346        -12.818
  -2.344        -12.822
  -2.342        -12.827
  -2.340        -12.831
  -2.338        -12.836
  -2.336        -12.841
  -2.333        -12.845
  -2.331        -12.850
  -2.329        -12.855
  -2.327        -12.860
  -2.325        -12.865
  -2.323        -12.870
  -2.320        -12.875
  -2.318        -12.880
  -2.316        -12.885
  -2.314        -12.890
  -2.312        -12.896
  -2.309        -12.901
  -2.307        -12.907
  -2.305        -12.912
  -2.303        -12.918
  -2.301        -12.923
  -2.299        -12.929
  -2.297        -12.935
  -2.294        -12.941
  -2.292        -12.946
  -2.290        -12.952
  -2.288        -12.958
  -2.286        -12.964
  -2.283        -12.970
  -2.281        -12.977
  -2.279        -12.983
  -2.277        -12.989
  -2.275        -12.995
  -2.273        -13.002
  -2.270        -13.008
  -2.268        -13.015
  -2.266        -13.021
  -2.264        -13.028
  -2.262        -13.035
  -2.260        -13.041
  -2.257        -13.048
  -2.255        -13.055
  -2.253        -13.062
  -2.251        -13.069
  -2.249        -13.076
  -2.247        -13.084
  -2.244        -13.091
  -2.242        -13.098
  -2.240        -13.106
  -2.238        -13.113
  -2.236        -13.120
  -2.234        -13.128
  -2.231        -13.136
  -2.229        -13.144
  -2.227        -13.152
  -2.225        -13.159
  -2.223        -13.167
  -2.220        -13.175
  -2.218        -13.183
  -2.216        -13.192
  -2.214        -13.200
  -2.212        -13.208
  -2.210        -13.217
  -2.207        -13.225
  -2.205        -13.234
  -2.203        -13.242
  -2.201        -13.251
  -2.199        -13.259
  -2.197        -13.269
  -2.194        -13.277
  -2.192        -13.286
  -2.190        -13.295
  -2.188        -13.305
  -2.186        -13.314
  -2.184        -13.323
  -2.181        -13.332
  -2.179        -13.342
  -2.177        -13.351
  -2.175        -13.361
  -2.173        -13.371
  -2.171        -13.381
  -2.168        -13.391
  -2.166        -13.400
  -2.164        -13.410
  -2.162        -13.421
  -2.160        -13.431
  -2.158        -13.441
  -2.155        -13.451
  -2.153        -13.462
  -2.151        -13.472
  -2.149        -13.483
  -2.147        -13.494
  -2.145        -13.505
  -2.142        -13.515
  -2.140        -13.526
  -2.138        -13.537
  -2.136        -13.549
  -2.134        -13.560
  -2.131        -13.571
  -2.129        -13.583
  -2.127        -13.594
  -2.125        -13.606
  -2.123        -13.617
  -2.121        -13.629
  -2.118        -13.641
  -2.116        -13.653
  -2.114        -13.665
  -2.112        -13.677
  -2.110        -13.689
  -2.108        -13.702
  -2.105        -13.714
  -2.103        -13.727
  -2.101        -13.739
  -2.099        -13.752
  -2.097        -13.765
  -2.095        -13.778
  -2.092        -13.791
  -2.090        -13.804
  -2.088        -13.817
  -2.086        -13.830
  -2.084        -13.843
  -2.082        -13.857
  -2.079        -13.871
  -2.077        -13.884
  -2.075        -13.898
  -2.073        -13.912
  -2.071        -13.926
  -2.069        -13.940
  -2.066        -13.954
  -2.064        -13.969
  -2.062        -13.983
  -2.060        -13.997
  -2.058        -14.012
  -2.056        -14.027
  -2.053        -14.042
  -2.051        -14.057
  -2.049        -14.072
  -2.047        -14.087
  -2.045        -14.102
  -2.043        -14.117
  -2.040        -14.133
  -2.038        -14.148
  -2.036        -14.164
  -2.034        -14.180
  -2.032        -14.196
  -2.029        -14.212
  -2.027        -14.228
  -2.025        -14.244
  -2.023        -14.261
  -2.021        -14.277
  -2.019        -14.294
  -2.016        -14.311
  -2.014        -14.327
  -2.012        -14.344
  -2.010        -14.362
  -2.008        -14.379
  -2.006        -14.396
  -2.003        -14.413
  -2.001        -14.431
  -1.999        -14.449
  -1.997        -14.466
  -1.995        -14.484
  -1.993        -14.502
  -1.990        -14.520
  -1.988        -14.539
  -1.986        -14.557
  -1.984        -14.576
  -1.982        -14.594
  -1.980        -14.613
  -1.977        -14.632
  -1.975        -14.651
  -1.973        -14.670
  -1.971        -14.689
  -1.969        -14.709
  -1.967        -14.728
  -1.964        -14.748
  -1.962        -14.768
  -1.960        -14.788
  -1.958        -14.808
  -1.956        -14.828
  -1.953        -14.848
  -1.951        -14.869
  -1.949        -14.890
  -1.947        -14.910
  -1.945        -14.931
  -1.943        -14.952
  -1.940        -14.973
  -1.938        -14.995
  -1.936        -15.016
  -1.934        -15.038
  -1.932        -15.059
  -1.930        -15.081
  -1.927        -15.103
  -1.925        -15.125
  -1.923        -15.148
  -1.921        -15.170
  -1.919        -15.193
  -1.917        -15.215
  -1.914        -15.238
  -1.912        -15.261
  -1.910        -15.284
  -1.908        -15.308
  -1.906        -15.331
  -1.904        -15.355
  -1.901        -15.379
  -1.899        -15.402
  -1.897        -15.427
  -1.895        -15.451
  -1.893        -15.475
  -1.891        -15.500
  -1.888        -15.524
  -1.886        -15.549
  -1.884        -15.574
  -1.882        -15.599
  -1.880        -15.625
  -1.877        -15.650
  -1.875        -15.676
  -1.873        -15.701
  -1.871        -15.727
  -1.869        -15.754
  -1.867        -15.780
  -1.864        -15.806
  -1.862        -15.833
  -1.860        -15.860
  -1.858        -15.887
  -1.856        -15.913
  -1.853        -15.941
  -1.851        -15.968
  -1.849        -15.996
  -1.847        -16.024
  -1.845        -16.051
  -1.843        -16.080
  -1.841        -16.108
  -1.838        -16.136
  -1.836        -16.165
  -1.834        -16.194
  -1.832        -16.223
  -1.830        -16.252
  -1.828        -16.281
  -1.825        -16.310
  -1.823        -16.340
  -1.821        -16.370
  -1.819        -16.400
  -1.817        -16.430
  -1.815        -16.460
  -1.812        -16.491
  -1.810        -16.521
  -1.808        -16.552
  -1.806        -16.583
  -1.804        -16.615
  -1.801        -16.646
  -1.799        -16.678
  -1.797        -16.709
  -1.795        -16.741
  -1.793        -16.773
  -1.791        -16.806
  -1.788        -16.838
  -1.786        -16.870
  -1.784        -16.903
  -1.782        -16.936
  -1.780        -16.969
  -1.777        -17.003
  -1.775        -17.036
  -1.773        -17.070
  -1.771        -17.103
  -1.769        -17.137
  -1.767        -17.171
  -1.764        -17.205
  -1.763        -17.239
  -1.760        -17.274
  -1.758        -17.308
  -1.756        -17.343
  -1.754        -17.377
  -1.752        -17.412
  -1.749        -17.447
  -1.747        -17.482
  -1.745        -17.518
  -1.743        -17.553
  -1.741        -17.588
  -1.739        -17.623
  -1.736        -17.658
  -1.734        -17.694
  -1.732        -17.729
  -1.730        -17.764
  -1.728        -17.799
  -1.726        -17.834
  -1.723        -17.869
  -1.721        -17.904
  -1.719        -17.938
  -1.717        -17.972
  -1.715        -18.007
  -1.713        -18.040
  -1.710        -18.074
  -1.708        -18.107
  -1.706        -18.140
  -1.704        -18.172
  -1.702        -18.204
  -1.699        -18.236
  -1.697        -18.266
  -1.695        -18.297
  -1.693        -18.326
  -1.691        -18.355
  -1.689        -18.383
  -1.686        -18.411
  -1.684        -18.437
  -1.682        -18.463
  -1.680        -18.487
  -1.678        -18.511
  -1.675        -18.534
  -1.673        -18.556
  -1.671        -18.577
  -1.669        -18.597
  -1.667        -18.615
  -1.665        -18.634
  -1.663        -18.650
  -1.660        -18.666
  -1.658        -18.681
  -1.656        -18.695
  -1.654        -18.709
  -1.652        -18.721
  -1.650        -18.732
  -1.647        -18.743
  -1.645        -18.752
  -1.643        -18.762
  -1.641        -18.770
  -1.639        -18.778
  -1.637        -18.785
  -1.634        -18.792
  -1.632        -18.798
  -1.630        -18.803
  -1.628        -18.809
  -1.626        -18.814
  -1.623        -18.818
  -1.621        -18.822
  -1.619        -18.826
  -1.617        -18.829
  -1.615        -18.833
  -1.613        -18.836
  -1.611        -18.838
  -1.608        -18.841
  -1.606        -18.843
  -1.604        -18.845
  -1.602        -18.847
  -1.600        -18.849
  -1.597        -18.851
  -1.595        -18.853
  -1.593        -18.854
  -1.591        -18.856
  -1.589        -18.857
  -1.587        -18.859
  -1.584        -18.860
  -1.582        -18.861
  -1.580        -18.863
  -1.578        -18.864
  -1.576        -18.865
  -1.573        -18.866
  -1.571        -18.867
  -1.569        -18.868
  -1.567        -18.869
  -1.565        -18.870
  -1.563        -18.871
  -1.561        -18.872
  -1.558        -18.873
  -1.556        -18.874
  -1.554        -18.875
  -1.552        -18.876
  -1.550        -18.877
  -1.547        -18.878
  -1.545        -18.878
  -1.543        -18.879
  -1.541        -18.880
  -1.539        -18.881
  -1.537        -18.882
  -1.534        -18.883
  -1.532        -18.884
  -1.530        -18.885
  -1.528        -18.885
  -1.526        -18.886
  -1.524        -18.887
  -1.522        -18.888
  -1.519        -18.889
  -1.517        -18.890
  -1.515        -18.890
  -1.513        -18.891
  -1.511        -18.892
  -1.508        -18.893
  -1.506        -18.894
  -1.504        -18.895
  -1.502        -18.895
  -1.500        -18.896
  -1.498        -18.897
  -1.495        -18.898
  -1.493        -18.899
  -1.491        -18.900
  -1.489        -18.900
  -1.487        -18.901
  -1.484        -18.902
  -1.482        -18.903
  -1.480        -18.904
  -1.478        -18.905
  -1.476        -18.905
  -1.474        -18.906
  -1.472        -18.907
  -1.469        -18.908
  -1.467        -18.909
  -1.465        -18.909
  -1.463        -18.910
  -1.461        -18.911
  -1.458        -18.912
  -1.456        -18.913
  -1.454        -18.914
  -1.452        -18.914
  -1.450        -18.915
  -1.448        -18.916
  -1.445        -18.917
  -1.443        -18.918
  -1.441        -18.918
  -1.439        -18.919
  -1.437        -18.920
  -1.435        -18.921
  -1.432        -18.922
  -1.430        -18.922
  -1.428        -18.923
  -1.426        -18.924
  -1.424        -18.925
  -1.422        -18.926
  -1.419        -18.927
  -1.417        -18.927
  -1.415        -18.928
  -1.413        -18.929
  -1.411        -18.930
  -1.409        -18.931
  -1.406        -18.931
  -1.404        -18.932
  -1.402        -18.933
  -1.400        -18.934
  -1.398        -18.935
  -1.396        -18.935
  -1.393        -18.936
  -1.391        -18.937
  -1.389        -18.938
  -1.387        -18.939
  -1.385        -18.940
  -1.383        -18.940
  -1.380        -18.941
  -1.378        -18.942
  -1.376        -18.943
  -1.374        -18.943
  -1.372        -18.944
  -1.370        -18.945
  -1.367        -18.946
  -1.365        -18.947
  -1.363        -18.947
  -1.361        -18.948
  -1.359        -18.949
  -1.356        -18.950
  -1.354        -18.951
  -1.352        -18.952
  -1.350        -18.952
  -1.348        -18.953
  -1.346        -18.954
  -1.343        -18.955
  -1.341        -18.956
  -1.339        -18.956
  -1.337        -18.957
  -1.335        -18.958
  -1.333        -18.959
  -1.330        -18.960
  -1.328        -18.961
  -1.326        -18.961
  -1.324        -18.962
  -1.322        -18.963
  -1.320        -18.964
  -1.317        -18.964
  -1.315        -18.965
  -1.313        -18.966
  -1.311        -18.967
  -1.309        -18.968
  -1.307        -18.969
  -1.304        -18.969
  -1.302        -18.970
  -1.300        -18.971
  -1.298        -18.972
  -1.296        -18.972
  -1.293        -18.973
  -1.291        -18.974
  -1.289        -18.975
  -1.287        -18.976
  -1.285        -18.976
  -1.283        -18.977
  -1.280        -18.978
  -1.278        -18.979
  -1.276        -18.980
  -1.274        -18.981
  -1.272        -18.981
  -1.270        -18.982
  -1.267        -18.983
  -1.265        -18.984
  -1.263        -18.985
  -1.261        -18.985
  -1.259        -18.986
  -1.257        -18.987
  -1.254        -18.988
  -1.252        -18.989
  -1.250        -18.990
  -1.248        -18.990
  -1.246        -18.991
  -1.243        -18.992
  -1.241        -18.993
  -1.239        -18.994
  -1.237        -18.994
  -1.235        -18.995
  -1.233        -18.996
  -1.231        -18.997
  -1.228        -18.998
  -1.226        -18.999
  -1.224        -19.000
  -1.222        -19.000
  -1.220        -19.001
  -1.217        -19.002
  -1.215        -19.003
  -1.213        -19.004
  -1.211        -19.005
  -1.209        -19.006
  -1.207        -19.006
  -1.204        -19.007
  -1.202        -19.008
  -1.200        -19.009
  -1.198        -19.010
  -1.196        -19.011
  -1.194        -19.012
  -1.191        -19.012
  -1.189        -19.013
  -1.187        -19.014
  -1.185        -19.015
  -1.183        -19.016
  -1.181        -19.017
  -1.178        -19.018
  -1.176        -19.019
  -1.174        -19.020
  -1.172        -19.021
  -1.170        -19.022
  -1.168        -19.022
  -1.165        -19.023
  -1.163        -19.024
  -1.161        -19.025
  -1.159        -19.026
  -1.157        -19.027
  -1.155        -19.028
  -1.152        -19.029
  -1.150        -19.030
  -1.148        -19.031
  -1.146        -19.032
  -1.144        -19.033
  -1.142        -19.034
  -1.139        -19.035
  -1.137        -19.036
  -1.135        -19.037
  -1.133        -19.038
  -1.131        -19.039
  -1.129        -19.040
  -1.126        -19.041
  -1.124        -19.043
  -1.122        -19.044
  -1.120        -19.045
  -1.118        -19.046
  -1.115        -19.047
  -1.113        -19.048
  -1.111        -19.049
  -1.109        -19.050
  -1.107        -19.052
  -1.105        -19.053
  -1.102        -19.054
  -1.100        -19.055
  -1.098        -19.056
  -1.096        -19.057
  -1.094        -19.059
  -1.092        -19.060
  -1.089        -19.061
  -1.087        -19.063
  -1.085        -19.064
  -1.083        -19.065
  -1.081        -19.066
  -1.079        -19.068
  -1.076        -19.069
  -1.074        -19.070
  -1.072        -19.072
  -1.070        -19.073
  -1.068        -19.075
  -1.066        -19.076
  -1.063        -19.077
  -1.061        -19.079
  -1.059        -19.080
  -1.057        -19.082
  -1.055        -19.083
  -1.052        -19.085
  -1.050        -19.086
  -1.048        -19.088
  -1.046        -19.090
  -1.044        -19.091
  -1.042        -19.093
  -1.039        -19.095
  -1.037        -19.096
  -1.035        -19.098
  -1.033        -19.100
  -1.031        -19.101
  -1.029        -19.103
  -1.026        -19.105
  -1.024        -19.107
  -1.022        -19.109
  -1.020        -19.111
  -1.018        -19.113
  -1.016        -19.115
  -1.013        -19.117
  -1.011        -19.119
  -1.009        -19.121
  -1.007        -19.123
  -1.005        -19.125
  -1.003        -19.127
  -1.000        -19.129
  -0.998        -19.131
  -0.996        -19.133
  -0.994        -19.135
  -0.992        -19.137
  -0.990        -19.139
  -0.987        -19.141
  -0.985        -19.143
  -0.983        -19.145
  -0.981        -19.147
  -0.979        -19.149
  -0.977        -19.151
  -0.974        -19.153
  -0.972        -19.155
  -0.970        -19.157
  -0.968        -19.159
  -0.966        -19.161
  -0.963        -19.163
  -0.961        -19.165
  -0.959        -19.167
  -0.957        -19.169
  -0.955        -19.170
  -0.953        -19.172
  -0.950        -19.174
  -0.948        -19.176
  -0.946        -19.178
  -0.944        -19.179
  -0.942        -19.181
  -0.940        -19.183
  -0.937        -19.185
  -0.935        -19.186
  -0.933        -19.188
  -0.931        -19.190
  -0.929        -19.192
  -0.927        -19.193
  -0.924        -19.195
  -0.922        -19.196
  -0.920        -19.198
  -0.918        -19.199
  -0.916        -19.201
  -0.914        -19.203
  -0.911        -19.204
  -0.909        -19.206
  -0.907        -19.207
  -0.905        -19.209
  -0.903        -19.210
  -0.900        -19.212
  -0.898        -19.213
  -0.896        -19.215
  -0.894        -19.216
  -0.892        -19.217
  -0.890        -19.219
  -0.887        -19.220
  -0.885        -19.222
  -0.883        -19.223
  -0.881        -19.224
  -0.879        -19.225
  -0.877        -19.227
  -0.874        -19.228
  -0.872        -19.229
  -0.870        -19.230
  -0.868        -19.232
  -0.866        -19.233
  -0.864        -19.234
  -0.862        -19.235
  -0.859        -19.236
  -0.857        -19.237
  -0.855        -19.238
  -0.853        -19.240
  -0.851        -19.241
  -0.848        -19.242
  -0.846        -19.243
  -0.844        -19.244
  -0.842        -19.245
  -0.840        -19.246
  -0.838        -19.246
  -0.835        -19.248
  -0.833        -19.248
  -0.831        -19.249
  -0.829        -19.250
  -0.827        -19.251
  -0.825        -19.252
  -0.822        -19.253
  -0.820        -19.254
  -0.818        -19.254
  -0.816        -19.255
  -0.814        -19.256
  -0.812        -19.256
  -0.809        -19.257
  -0.807        -19.258
  -0.805        -19.258
  -0.803        -19.259
  -0.801        -19.260
  -0.799        -19.260
  -0.796        -19.261
  -0.794        -19.262
  -0.792        -19.262
  -0.790        -19.263
  -0.788        -19.263
  -0.785        -19.264
  -0.783        -19.264
  -0.781        -19.265
  -0.779        -19.265
  -0.777        -19.266
  -0.774        -19.266
  -0.772        -19.266
  -0.770        -19.267
  -0.768        -19.267
  -0.766        -19.268
  -0.764        -19.268
  -0.762        -19.268
  -0.759        -19.269
  -0.757        -19.269
  -0.755        -19.269
  -0.753        -19.269
  -0.751        -19.270
  -0.748        -19.270
  -0.746        -19.270
  -0.744        -19.270
  -0.742        -19.270
  -0.740        -19.271
  -0.738        -19.271
  -0.736        -19.271
  -0.733        -19.270
  -0.731        -19.271
  -0.729        -19.271
  -0.727        -19.271
  -0.725        -19.271
  -0.723        -19.270
  -0.720        -19.271
  -0.718        -19.270
  -0.716        -19.270
  -0.714        -19.270
  -0.712        -19.269
  -0.709        -19.269
  -0.707        -19.269
  -0.705        -19.268
  -0.703        -19.268
  -0.701        -19.268
  -0.699        -19.267
  -0.697        -19.267
  -0.694        -19.266
  -0.692        -19.265
  -0.690        -19.265
  -0.688        -19.264
  -0.685        -19.264
  -0.683        -19.263
  -0.681        -19.262
  -0.679        -19.262
  -0.677        -19.261
  -0.675        -19.260
  -0.673        -19.259
  -0.670        -19.258
  -0.668        -19.257
  -0.666        -19.257
  -0.664        -19.256
  -0.662        -19.255
  -0.659        -19.254
  -0.657        -19.253
  -0.655        -19.252
  -0.653        -19.251
  -0.651        -19.250
  -0.649        -19.249
  -0.647        -19.248
  -0.644        -19.247
  -0.642        -19.245
  -0.640        -19.244
  -0.638        -19.243
  -0.636        -19.242
  -0.633        -19.241
  -0.631        -19.239
  -0.629        -19.238
  -0.627        -19.237
  -0.625        -19.235
  -0.623        -19.234
  -0.621        -19.233
  -0.618        -19.231
  -0.616        -19.230
  -0.614        -19.229
  -0.612        -19.227
  -0.610        -19.225
  -0.608        -19.224
  -0.605        -19.222
  -0.603        -19.221
  -0.601        -19.219
  -0.599        -19.218
  -0.596        -19.216
  -0.594        -19.215
  -0.592        -19.213
  -0.590        -19.211
  -0.588        -19.210
  -0.586        -19.208
  -0.584        -19.206
  -0.581        -19.204
  -0.579        -19.203
  -0.577        -19.201
  -0.575        -19.199
  -0.573        -19.197
  -0.571        -19.196
  -0.568        -19.194
  -0.566        -19.192
  -0.564        -19.190
  -0.562        -19.189
  -0.560        -19.187
  -0.557        -19.185
  -0.555        -19.183
  -0.553        -19.181
  -0.551        -19.180
  -0.549        -19.178
  -0.547        -19.176
  -0.544        -19.175
  -0.542        -19.173
  -0.540        -19.171
  -0.538        -19.169
  -0.536        -19.168
  -0.534        -19.166
  -0.531        -19.164
  -0.529        -19.163
  -0.527        -19.161
  -0.525        -19.159
  -0.523        -19.158
  -0.521        -19.156
  -0.518        -19.154
  -0.516        -19.153
  -0.514        -19.151
  -0.512        -19.149
  -0.510        -19.148
  -0.507        -19.146
  -0.505        -19.144
  -0.503        -19.143
  -0.501        -19.141
  -0.499        -19.140
  -0.497        -19.138
  -0.495        -19.136
  -0.492        -19.135
  -0.490        -19.133
  -0.488        -19.132
  -0.486        -19.130
  -0.484        -19.128
  -0.482        -19.127
  -0.479        -19.125
  -0.477        -19.124
  -0.475        -19.122
  -0.473        -19.120
  -0.471        -19.119
  -0.468        -19.117
  -0.466        -19.115
  -0.464        -19.114
  -0.462        -19.112
  -0.460        -19.111
  -0.458        -19.109
  -0.455        -19.107
  -0.453        -19.106
  -0.451        -19.104
  -0.449        -19.103
  -0.447        -19.101
  -0.445        -19.100
  -0.442        -19.098
  -0.440        -19.096
  -0.438        -19.095
  -0.436        -19.093
  -0.434        -19.092
  -0.432        -19.090
  -0.429        -19.089
  -0.427        -19.087
  -0.425        -19.086
  -0.423        -19.084
  -0.421        -19.082
  -0.419        -19.081
  -0.416        -19.079
  -0.414        -19.078
  -0.412        -19.076
  -0.410        -19.075
  -0.408        -19.073
  -0.405        -19.072
  -0.403        -19.070
  -0.401        -19.069
  -0.399        -19.067
  -0.397        -19.066
  -0.395        -19.064
  -0.392        -19.062
  -0.390        -19.061
  -0.388        -19.059
  -0.386        -19.058
  -0.384        -19.056
  -0.382        -19.055
  -0.379        -19.053
  -0.377        -19.052
  -0.375        -19.050
  -0.373        -19.049
  -0.371        -19.047
  -0.369        -19.046
  -0.366        -19.044
  -0.364        -19.042
  -0.362        -19.041
  -0.360        -19.039
  -0.358        -19.038
  -0.356        -19.036
  -0.353        -19.035
  -0.351        -19.033
  -0.349        -19.031
  -0.347        -19.030
  -0.345        -19.028
  -0.343        -19.027
  -0.340        -19.025
  -0.338        -19.024
  -0.336        -19.022
  -0.334        -19.021
  -0.332        -19.019
  -0.330        -19.018
  -0.327        -19.016
  -0.325        -19.015
  -0.323        -19.013
  -0.321        -19.012
  -0.319        -19.010
  -0.316        -19.009
  -0.314        -19.008
  -0.312        -19.006
  -0.310        -19.005
  -0.308        -19.003
  -0.306        -19.002
  -0.303        -19.001
  -0.301        -18.999
  -0.299        -18.998
  -0.297        -18.997
  -0.295        -18.996
  -0.293        -18.995
  -0.290        -18.994
  -0.288        -18.993
  -0.286        -18.992
  -0.284        -18.991
  -0.282        -18.990
  -0.280        -18.989
  -0.277        -18.988
  -0.275        -18.987
  -0.273        -18.986
  -0.271        -18.986
  -0.269        -18.985
  -0.267        -18.984
  -0.264        -18.983
  -0.262        -18.982
  -0.260        -18.982
  -0.258        -18.981
  -0.256        -18.980
  -0.253        -18.980
  -0.251        -18.979
  -0.249        -18.978
  -0.247        -18.978
  -0.245        -18.977
  -0.243        -18.976
  -0.241        -18.976
  -0.238        -18.975
  -0.236        -18.975
  -0.234        -18.974
  -0.232        -18.974
  -0.230        -18.973
  -0.227        -18.973
  -0.225        -18.972
  -0.223        -18.972
  -0.221        -18.971
  -0.219        -18.971
  -0.217        -18.970
  -0.214        -18.970
  -0.212        -18.970
  -0.210        -18.970
  -0.208        -18.969
  -0.206        -18.969
  -0.204        -18.969
  -0.201        -18.968
  -0.199        -18.968
  -0.197        -18.968
  -0.195        -18.968
  -0.193        -18.968
  -0.191        -18.968
  -0.188        -18.968
  -0.186        -18.967
  -0.184        -18.967
  -0.182        -18.967
  -0.180        -18.967
  -0.178        -18.967
  -0.175        -18.967
  -0.173        -18.967
  -0.171        -18.967
  -0.169        -18.968
  -0.167        -18.968
  -0.164        -18.968
  -0.162        -18.968
  -0.160        -18.968
  -0.158        -18.968
  -0.156        -18.969
  -0.154        -18.969
  -0.151        -18.969
  -0.149        -18.970
  -0.147        -18.970
  -0.145        -18.970
  -0.143        -18.971
  -0.141        -18.971
  -0.138        -18.971
  -0.136        -18.972
  -0.134        -18.972
  -0.132        -18.972
  -0.130        -18.973
  -0.128        -18.973
  -0.125        -18.973
  -0.123        -18.974
  -0.121        -18.974
  -0.119        -18.975
  -0.117        -18.975
  -0.115        -18.975
  -0.112        -18.975
  -0.110        -18.976
  -0.108        -18.976
  -0.106        -18.976
  -0.104        -18.977
  -0.102        -18.977
  -0.099        -18.977
  -0.097        -18.977
  -0.095        -18.977
  -0.093        -18.978
  -0.091        -18.978
  -0.089        -18.978
  -0.086        -18.978
  -0.084        -18.978
  -0.082        -18.978
  -0.080        -18.978
  -0.078        -18.978
  -0.075        -18.979
  -0.073        -18.979
  -0.071        -18.979
  -0.069        -18.979
  -0.067        -18.979
  -0.065        -18.979
  -0.063        -18.979
  -0.060        -18.979
  -0.058        -18.979
  -0.056        -18.979
  -0.054        -18.979
  -0.052        -18.979
  -0.049        -18.979
  -0.047        -18.979
  -0.045        -18.979
  -0.043        -18.980
  -0.041        -18.980
  -0.039        -18.980
  -0.036        -18.980
  -0.034        -18.980
  -0.032        -18.980
  -0.030        -18.980
  -0.028        -18.981
  -0.026        -18.981
  -0.023        -18.981
  -0.021        -18.981
  -0.019        -18.981
  -0.017        -18.981
  -0.015        -18.981
  -0.013        -18.981
  -0.010        -18.982
  -0.008        -18.982
  -0.006        -18.982
  -0.004        -18.982
  -0.002        -18.982
   0.000        -18.982
   0.003        -18.982
   0.005        -18.982
   0.007        -18.982
   0.009        -18.982
   0.011        -18.982
   0.013        -18.982
   0.016        -18.982
   0.018        -18.982
   0.020        -18.982
   0.022        -18.982
   0.024        -18.982
   0.027        -18.982
   0.029        -18.982
   0.031        -18.982
   0.033        -18.983
   0.035        -18.983
   0.037        -18.983
   0.040        -18.983
   0.042        -18.983
   0.044        -18.983
   0.046        -18.983
   0.048        -18.983
   0.050        -18.983
   0.053        -18.983
   0.055        -18.983
   0.057        -18.984
   0.059        -18.984
   0.061        -18.984
   0.063        -18.984
   0.066        -18.984
   0.068        -18.984
   0.070        -18.984
   0.072        -18.984
   0.074        -18.985
   0.076        -18.985
   0.079        -18.985
   0.081        -18.985
   0.083        -18.986
   0.085        -18.986
   0.087        -18.986
   0.089        -18.986
   0.092        -18.987
   0.094        -18.987
   0.096        -18.987
   0.098        -18.988
   0.100        -18.988
   0.103        -18.989
   0.105        -18.989
   0.107        -18.989
   0.109        -18.990
   0.111        -18.990
   0.113        -18.991
   0.116        -18.991
   0.118        -18.992
   0.120        -18.992
   0.122        -18.993
   0.124        -18.993
   0.126        -18.994
   0.128        -18.994
   0.131        -18.995
   0.133        -18.995
   0.135        -18.996
   0.137        -18.996
   0.139        -18.996
   0.142        -18.997
   0.144        -18.997
   0.146        -18.998
   0.148        -18.998
   0.150        -18.999
   0.153        -18.999
   0.155        -19.000
   0.157        -19.000
   0.159        -19.000
   0.161        -19.001
   0.163        -19.001
   0.165        -19.002
   0.168        -19.002
   0.170        -19.003
   0.172        -19.003
   0.174        -19.004
   0.176        -19.004
   0.178        -19.004
   0.181        -19.005
   0.183        -19.006
   0.185        -19.006
   0.187        -19.007
   0.189        -19.007
   0.192        -19.008
   0.194        -19.008
   0.196        -19.009
   0.198        -19.009
   0.200        -19.010
   0.202        -19.010
   0.205        -19.011
   0.207        -19.011
   0.209        -19.011
   0.211        -19.012
   0.213        -19.013
   0.215        -19.013
   0.218        -19.014
   0.220        -19.014
   0.222        -19.015
   0.224        -19.016
   0.226        -19.016
   0.229        -19.017
   0.231        -19.017
   0.233        -19.018
   0.235        -19.018
   0.237        -19.019
   0.239        -19.020
   0.241        -19.020
   0.244        -19.021
   0.246        -19.021
   0.248        -19.022
   0.250        -19.023
   0.252        -19.023
   0.254        -19.024
   0.257        -19.025
   0.259        -19.025
   0.261        -19.026
   0.263        -19.027
   0.265        -19.028
   0.267        -19.028
   0.270        -19.029
   0.272        -19.030
   0.274        -19.031
   0.276        -19.031
   0.278        -19.032
   0.281        -19.033
   0.283        -19.033
   0.285        -19.034
   0.287        -19.035
   0.289        -19.036
   0.291        -19.037
   0.293        -19.037
   0.296        -19.038
   0.298        -19.039
   0.300        -19.040
   0.302        -19.041
   0.305        -19.042
   0.307        -19.043
   0.309        -19.043
   0.311        -19.044
   0.313        -19.045
   0.315        -19.046
   0.318        -19.047
   0.320        -19.048
   0.322        -19.049
   0.324        -19.050
   0.326        -19.051
   0.328        -19.052
   0.330        -19.053
   0.333        -19.054
   0.335        -19.055
   0.337        -19.056
   0.339        -19.057
   0.341        -19.058
   0.344        -19.059
   0.346        -19.060
   0.348        -19.061
   0.350        -19.062
   0.352        -19.063
   0.354        -19.064
   0.356        -19.065
   0.359        -19.067
   0.361        -19.068
   0.363        -19.069
   0.365        -19.070
   0.367        -19.071
   0.369        -19.072
   0.372        -19.073
   0.374        -19.074
   0.376        -19.075
   0.378        -19.076
   0.380        -19.077
   0.383        -19.078
   0.385        -19.079
   0.387        -19.080
   0.389        -19.082
   0.391        -19.083
   0.393        -19.084
   0.396        -19.085
   0.398        -19.087
   0.400        -19.088
   0.402        -19.089
   0.404        -19.090
   0.406        -19.092
   0.409        -19.093
   0.411        -19.095
   0.413        -19.096
   0.415        -19.098
   0.417        -19.100
   0.420        -19.101
   0.422        -19.103
   0.424        -19.104
   0.426        -19.106
   0.428        -19.108
   0.430        -19.109
   0.432        -19.111
   0.435        -19.113
   0.437        -19.114
   0.439        -19.116
   0.441        -19.118
   0.443        -19.119
   0.446        -19.121
   0.448        -19.123
   0.450        -19.125
   0.452        -19.127
   0.454        -19.129
   0.456        -19.131
   0.459        -19.134
   0.461        -19.136
   0.463        -19.138
   0.465        -19.140
   0.467        -19.142
   0.469        -19.144
   0.472        -19.146
   0.474        -19.148
   0.476        -19.150
   0.478        -19.152
   0.480        -19.154
   0.482        -19.156
   0.485        -19.158
   0.487        -19.160
   0.489        -19.161
   0.491        -19.162
   0.493        -19.163
   0.495        -19.163
   0.498        -19.164
   0.500        -19.164
   0.502        -19.165
   0.504        -19.165
   0.506        -19.166
   0.510        -19.166
   0.512        -19.166
   0.513        -19.165
   0.515        -19.165
   0.517        -19.165
   0.519        -19.164
   0.522        -19.163
   0.524        -19.163
   0.526        -19.162
   0.528        -19.162
   0.530        -19.161
   0.532        -19.161
   0.535        -19.160
   0.537        -19.159
   0.539        -19.159
   0.541        -19.158
   0.543        -19.158
   0.545        -19.157
   0.548        -19.156
   0.550        -19.156
   0.552        -19.155
   0.554        -19.155
   0.556        -19.155
   0.558        -19.154
   0.561        -19.154
   0.563        -19.154
   0.565        -19.153
   0.567        -19.153
   0.569        -19.153
   0.572        -19.153
   0.574        -19.152
   0.576        -19.152
   0.578        -19.151
   0.580        -19.151
   0.582        -19.151
   0.585        -19.150
   0.587        -19.150
   0.589        -19.150
   0.591        -19.149
   0.593        -19.149
   0.595        -19.148
   0.598        -19.148
   0.600        -19.147
   0.602        -19.147
   0.604        -19.146
   0.606        -19.146
   0.608        -19.145
   0.611        -19.145
   0.613        -19.144
   0.615        -19.143
   0.617        -19.143
   0.619        -19.142
   0.621        -19.142
   0.624        -19.141
   0.626        -19.140
   0.628        -19.140
   0.630        -19.139
   0.632        -19.139
   0.634        -19.138
   0.637        -19.137
   0.639        -19.137
   0.641        -19.136
   0.643        -19.136
   0.645        -19.135
   0.647        -19.135
   0.650        -19.134
   0.652        -19.134
   0.654        -19.133
   0.656        -19.132
   0.658        -19.132
   0.660        -19.132
   0.663        -19.131
   0.665        -19.131
   0.667        -19.131
   0.669        -19.130
   0.671        -19.130
   0.673        -19.129
   0.676        -19.129
   0.678        -19.129
   0.680        -19.129
   0.682        -19.129
   0.684        -19.130
   0.687        -19.130
   0.689        -19.130
   0.691        -19.131
   0.693        -19.131
   0.695        -19.131
   0.697        -19.132
   0.700        -19.132
   0.702        -19.133
   0.704        -19.134
   0.706        -19.135
   0.708        -19.135
   0.710        -19.136
   0.713        -19.137
   0.715        -19.137
   0.717        -19.138
   0.719        -19.139
   0.721        -19.140
   0.723        -19.141
   0.726        -19.142
   0.728        -19.143
   0.730        -19.144
   0.732        -19.145
   0.734        -19.146
   0.736        -19.147
   0.739        -19.148
   0.741        -19.149
   0.743        -19.150
   0.745        -19.151
   0.747        -19.152
   0.750        -19.153
   0.752        -19.154
   0.754        -19.155
   0.756        -19.156
   0.758        -19.157
   0.760        -19.158
   0.762        -19.160
   0.765        -19.161
   0.767        -19.162
   0.769        -19.164
   0.771        -19.165
   0.773        -19.166
   0.776        -19.167
   0.778        -19.168
   0.780        -19.169
   0.782        -19.171
   0.784        -19.173
   0.786        -19.174
   0.789        -19.176
   0.791        -19.178
   0.793        -19.179
   0.795        -19.181
   0.797        -19.182
   0.799        -19.184
   0.802        -19.186
   0.804        -19.187
   0.806        -19.189
   0.808        -19.191
   0.810        -19.193
   0.812        -19.195
   0.815        -19.197
   0.817        -19.199
   0.819        -19.201
   0.821        -19.203
   0.823        -19.205
   0.825        -19.207
   0.828        -19.210
   0.830        -19.212
   0.832        -19.214
   0.834        -19.216
   0.836        -19.219
   0.838        -19.221
   0.841        -19.223
   0.843        -19.225
   0.845        -19.228
   0.847        -19.230
   0.849        -19.233
   0.852        -19.235
   0.854        -19.238
   0.856        -19.240
   0.858        -19.242
   0.860        -19.245
   0.862        -19.247
   0.865        -19.250
   0.867        -19.253
   0.869        -19.255
   0.871        -19.258
   0.873        -19.260
   0.875        -19.263
   0.878        -19.266
   0.880        -19.268
   0.882        -19.271
   0.884        -19.274
   0.886        -19.277
   0.888        -19.280
   0.891        -19.283
   0.893        -19.286
   0.895        -19.290
   0.897        -19.293
   0.899        -19.296
   0.901        -19.300
   0.904        -19.303
   0.906        -19.306
   0.908        -19.310
   0.910        -19.314
   0.912        -19.318
   0.915        -19.322
   0.917        -19.326
   0.919        -19.330
   0.921        -19.334
   0.923        -19.337
   0.925        -19.341
   0.928        -19.346
   0.930        -19.350
   0.932        -19.355
   0.934        -19.360
   0.936        -19.365
   0.938        -19.370
   0.941        -19.374
   0.943        -19.379
   0.945        -19.384
   0.947        -19.389
   0.949        -19.395
   0.951        -19.402
   0.954        -19.408
   0.956        -19.415
   0.958        -19.421
   0.960        -19.428
   0.962        -19.435
   0.964        -19.441
   0.967        -19.448
   0.969        -19.454
   0.971        -19.459
   0.973        -19.464
   0.975        -19.469
   0.977        -19.474
   0.980        -19.479
   0.982        -19.484
   0.984        -19.489
   0.986        -19.494
   0.988        -19.503
   0.990        -19.513
   0.993        -19.519
   0.995        -19.525
   0.997        -19.531
   0.999        -19.537
   1.001        -19.542
   1.004        -19.548
   1.006        -19.554
   1.008        -19.560
   1.010        -19.567
   1.012        -19.579
   1.014        -19.590
   1.017        -19.601
   1.019        -19.613
   1.021        -19.624
   1.023        -19.636
   1.025        -19.647
   1.027        -19.659
   1.030        -19.670
   1.032        -19.685
   1.034        -19.702
   1.036        -19.718
   1.038        -19.735
   1.040        -19.752
   1.043        -19.768
   1.045        -19.785
   1.047        -19.801
   1.049        -19.818
   1.051        -19.836
   1.053        -19.862
   1.056        -19.889
   1.058        -19.916
   1.060        -19.943
   1.062        -19.970
   1.064        -19.997
   1.066        -20.024
   1.069        -20.051
   1.071        -20.078
   1.073        -20.122
   1.075        -20.181
   1.077        -20.240
   1.079        -20.299
   1.082        -20.359
   1.084        -20.418
   1.086        -20.477
   1.088        -20.536
   1.090        -20.595
   1.093        -20.655
   1.095        -20.726
   1.097        -20.799
   1.099        -20.872
   1.101        -20.946
   1.103        -21.019
   1.106        -21.092
   1.108        -21.165
   1.110        -21.239
   1.112        -21.322
   1.114        -21.366
   1.117        -21.369
   1.119        -21.372
   1.121        -21.375
   1.123        -21.379
   1.125        -21.382
   1.127        -21.385
   1.129        -21.388
   1.131        -21.391
   1.134        -21.395
   1.136        -21.397
   1.138        -21.401
   1.140        -21.404
   1.143        -21.407
   1.145        -21.409
   1.147        -21.413
   1.149        -21.415
   1.151        -21.418
   1.153        -21.421
   1.155        -21.424
   1.158        -21.427
   1.160        -21.429
   1.162        -21.432
   1.164        -21.435
   1.166        -21.437
   1.169        -21.440
   1.171        -21.442
   1.173        -21.445
   1.175        -21.447
   1.177        -21.450
   1.180        -21.453
   1.181        -21.455
   1.184        -21.458
   1.186        -21.460
   1.188        -21.463
   1.190        -21.466
   1.192        -21.468
   1.195        -21.471
   1.197        -21.473
   1.199        -21.476
   1.201        -21.478
   1.203        -21.481
   1.205        -21.484
   1.208        -21.486
   1.210        -21.489
   1.212        -21.491
   1.214        -21.494
   1.216        -21.497
   1.218        -21.499
   1.220        -21.501
   1.223        -21.504
   1.225        -21.506
   1.227        -21.509
   1.229        -21.511
   1.232        -21.514
   1.234        -21.516
   1.236        -21.518
   1.238        -21.521
   1.240        -21.523
   1.242        -21.525
   1.245        -21.527
   1.247        -21.529
   1.249        -21.531
   1.251        -21.533
   1.253        -21.536
   1.255        -21.538
   1.258        -21.540
   1.260        -21.542
   1.262        -21.545
   1.264        -21.547
   1.266        -21.549
   1.268        -21.552
   1.270        -21.554
   1.273        -21.557
   1.275        -21.560
   1.277        -21.562
   1.279        -21.564
   1.281        -21.567
   1.284        -21.570
   1.286        -21.572
   1.288        -21.575
   1.290        -21.578
   1.292        -21.581
   1.294        -21.584
   1.297        -21.586
   1.299        -21.589
   1.301        -21.592
   1.303        -21.595
   1.305        -21.599
   1.307        -21.602
   1.310        -21.605
   1.312        -21.608
   1.314        -21.611
   1.316        -21.615
   1.318        -21.618
   1.320        -21.621
   1.323        -21.625
   1.325        -21.628
   1.327        -21.632
   1.329        -21.635
   1.331        -21.639
   1.334        -21.643
   1.336        -21.646
   1.338        -21.650
   1.340        -21.653
   1.342        -21.657
   1.344        -21.661
   1.346        -21.665
   1.349        -21.670
   1.351        -21.674
   1.353        -21.678
   1.355        -21.682
   1.357        -21.686
   1.359        -21.690
   1.362        -21.695
   1.364        -21.698
   1.366        -21.702
   1.368        -21.706
   1.370        -21.710
   1.373        -21.714
   1.375        -21.718
   1.377        -21.722
   1.379        -21.725
   1.381        -21.729
   1.383        -21.733
   1.386        -21.735
   1.388        -21.737
   1.390        -21.740
   1.392        -21.742
   1.394        -21.744
   1.397        -21.747
   1.399        -21.749
   1.401        -21.752
   1.403        -21.754
   1.405        -21.757
   1.407        -21.759
   1.410        -21.762
   1.412        -21.765
   1.414        -21.768
   1.416        -21.770
   1.418        -21.773
   1.420        -21.776
   1.423        -21.778
   1.425        -21.781
   1.427        -21.784
   1.429        -21.786
   1.431        -21.789
   1.433        -21.792
   1.436        -21.795
   1.438        -21.797
   1.440        -21.800
   1.442        -21.803
   1.444        -21.806
   1.446        -21.808
   1.449        -21.811
   1.451        -21.813
   1.453        -21.816
   1.455        -21.818
   1.457        -21.821
   1.460        -21.823
   1.462        -21.826
   1.464        -21.829
   1.466        -21.831
   1.468        -21.832
   1.470        -21.834
   1.472        -21.836
   1.475        -21.838
   1.477        -21.840
   1.479        -21.841
   1.481        -21.843
   1.483        -21.845
   1.486        -21.847
   1.488        -21.848
   1.490        -21.848
   1.492        -21.849
   1.494        -21.849
   1.496        -21.850
   1.498        -21.851
   1.501        -21.851
   1.503        -21.852
   1.505        -21.853
   1.507        -21.853
   1.509        -21.853
   1.512        -21.851
   1.514        -21.851
   1.516        -21.850
   1.518        -21.849
   1.520        -21.848
   1.522        -21.847
   1.525        -21.846
   1.527        -21.846
   1.529        -21.844
   1.531        -21.842
   1.533        -21.839
   1.535        -21.836
   1.538        -21.834
   1.540        -21.832
   1.542        -21.829
   1.544        -21.826
   1.546        -21.824
   1.549        -21.821
   1.551        -21.818
   1.553        -21.814
   1.555        -21.810
   1.557        -21.806
   1.559        -21.803
   1.561        -21.799
   1.564        -21.795
   1.566        -21.792
   1.568        -21.788
   1.570        -21.784
   1.572        -21.779
   1.575        -21.774
   1.577        -21.769
   1.579        -21.764
   1.581        -21.759
   1.583        -21.754
   1.585        -21.749
   1.588        -21.744
   1.590        -21.842
   1.592        -22.083
   1.594        -22.088
   1.596        -22.093
   1.598        -22.098
   1.601        -22.103
   1.603        -22.108
   1.605        -22.113
   1.607        -22.118
   1.609        -22.123
   1.611        -22.129
   1.614        -22.135
   1.616        -22.142
   1.618        -22.148
   1.620        -22.155
   1.622        -22.161
   1.624        -22.168
   1.627        -22.175
   1.629        -22.181
   1.631        -22.188
   1.633        -22.195
   1.635        -22.203
   1.637        -22.211
   1.640        -22.220
   1.642        -22.228
   1.644        -22.236
   1.646        -22.245
   1.648        -22.253
   1.651        -22.261
   1.653        -22.270
   1.655        -22.280
   1.657        -22.291
   1.659        -22.302
   1.661        -22.313
   1.664        -22.324
   1.666        -22.335
   1.668        -22.346
   1.670        -22.357
   1.672        -22.368
   1.674        -22.380
   1.676        -22.396
   1.679        -22.412
   1.681        -22.428
   1.683        -22.445
   1.685        -22.461
   1.687        -22.477
   1.690        -22.493
   1.692        -22.509
   1.694        -22.526
   1.696        -22.550
   1.699        -22.586
   1.701        -22.618
   1.703        -22.647
   1.705        -22.676
   1.707        -22.707
   1.709        -22.739
   1.711        -22.770
   1.714        -22.804
   1.716        -22.817
   1.718        -22.845
   1.720        -22.874
   1.722        -22.908
   1.724        -22.942
   1.727        -22.976
   1.729        -23.011
   1.731        -23.045
   1.733        -23.079
   1.735        -23.114
   1.737        -23.143
   1.739        -23.166
   1.742        -23.188
   1.744        -23.211
   1.746        -23.234
   1.748        -23.256
   1.750        -23.279
   1.753        -23.301
   1.755        -23.324
   1.757        -23.346
   1.759        -23.359
   1.761        -23.370
   1.763        -23.380
   1.766        -23.391
   1.768        -23.402
   1.770        -23.412
   1.772        -23.423
   1.774        -23.434
   1.776        -23.445
   1.779        -23.453
   1.781        -23.458
   1.783        -23.462
   1.785        -23.466
   1.787        -23.470
   1.789        -23.474
   1.792        -23.478
   1.794        -23.482
   1.796        -23.486
   1.798        -23.490
   1.800        -23.492
   1.802        -23.494
   1.805        -23.495
   1.807        -23.497
   1.809        -23.498
   1.811        -23.500
   1.813        -23.501
   1.816        -23.503
   1.818        -23.505
   1.820        -23.506
   1.822        -23.507
   1.824        -23.508
   1.826        -23.508
   1.829        -23.509
   1.831        -23.510
   1.833        -23.511
   1.835        -23.512
   1.837        -23.512
   1.839        -23.513
   1.842        -23.514
   1.844        -23.515
   1.846        -23.515
   1.848        -23.516
   1.850        -23.517
   1.852        -23.517
   1.855        -23.518
   1.857        -23.519
   1.859        -23.519
   1.861        -23.520
   1.863        -23.521
   1.865        -23.521
   1.868        -23.522
   1.870        -23.522
   1.872        -23.523
   1.874        -23.524
   1.876        -23.524
   1.878        -23.525
   1.881        -23.526
   1.883        -23.526
   1.885        -23.527
   1.887        -23.528
   1.889        -23.528
   1.891        -23.529
   1.894        -23.530
   1.896        -23.530
   1.898        -23.531
   1.900        -23.532
   1.902        -23.533
   1.905        -23.533
   1.907        -23.534
   1.909        -23.535
   1.911        -23.535
   1.913        -23.536
   1.915        -23.537
   1.918        -23.538
   1.920        -23.539
   1.922        -23.539
   1.924        -23.540
   1.926        -23.541
   1.928        -23.542
   1.931        -23.542
   1.933        -23.543
   1.935        -23.544
   1.937        -23.545
   1.939        -23.546
   1.941        -23.547
   1.944        -23.548
   1.946        -23.549
   1.948        -23.549
   1.950        -23.550
   1.952        -23.551
   1.954        -23.552
   1.957        -23.553
   1.959        -23.554
   1.961        -23.555
   1.963        -23.556
   1.965        -23.557
   1.967        -23.558
   1.970        -23.559
   1.972        -23.560
   1.974        -23.561
   1.976        -23.562
   1.978        -23.563
   1.980        -23.564
   1.983        -23.565
   1.985        -23.566
   1.987        -23.567
   1.989        -23.568
   1.991        -23.569
   1.993        -23.571
   1.996        -23.572
   1.998        -23.573
   2.000        -23.574
   2.002        -23.575
   2.004        -23.576
   2.007        -23.577
   2.009        -23.578
   2.011        -23.580
   2.013        -23.581
   2.015        -23.582
   2.017        -23.583
   2.020        -23.584
   2.022        -23.586
   2.024        -23.587
   2.026        -23.588
   2.028        -23.589
   2.030        -23.590
   2.033        -23.592
   2.035        -23.593
   2.037        -23.594
   2.039        -23.596
   2.041        -23.597
   2.043        -23.598
   2.046        -23.599
   2.048        -23.601
   2.050        -23.602
   2.052        -23.603
   2.054        -23.605
   2.056        -23.606
   2.059        -23.607
   2.061        -23.609
   2.063        -23.610
   2.065        -23.611
   2.067        -23.612
   2.069        -23.614
   2.072        -23.615
   2.074        -23.617
   2.076        -23.618
   2.078        -23.619
   2.080        -23.621
   2.083        -23.622
   2.085        -23.624
   2.087        -23.625
   2.089        -23.627
   2.091        -23.628
   2.093        -23.629
   2.096        -23.631
   2.098        -23.632
   2.100        -23.634
   2.102        -23.635
   2.104        -23.637
   2.106        -23.638
   2.109        -23.639
   2.111        -23.641
   2.113        -23.642
   2.115        -23.644
   2.117        -23.645
   2.120        -23.646
   2.122        -23.648
   2.124        -23.649
   2.126        -23.650
   2.128        -23.651
   2.130        -23.653
   2.133        -23.654
   2.135        -23.655
   2.137        -23.657
   2.139        -23.658
   2.141        -23.659
   2.143        -23.661
   2.145        -23.662
   2.148        -23.663
   2.150        -23.664
   2.152        -23.666
   2.154        -23.667
   2.157        -23.669
   2.158        -23.670
   2.161        -23.671
   2.163        -23.672
   2.165        -23.673
   2.167        -23.674
   2.169        -23.676
   2.172        -23.677
   2.174        -23.679
   2.176        -23.680
   2.178        -23.681
   2.180        -23.682
   2.183        -23.683
   2.185        -23.685
   2.187        -23.685
   2.189        -23.687
   2.191        -23.688
   2.193        -23.689
   2.195        -23.690
   2.197        -23.691
   2.200        -23.692
   2.202        -23.694
   2.204        -23.695
   2.206        -23.696
   2.208        -23.697
   2.211        -23.698
   2.213        -23.699
   2.215        -23.700
   2.217        -23.701
   2.219        -23.702
   2.221        -23.703
   2.224        -23.704
   2.226        -23.706
   2.228        -23.706
   2.230        -23.707
   2.232        -23.708
   2.235        -23.709
   2.237        -23.710
   2.239        -23.711
   2.241        -23.712
   2.243        -23.713
   2.245        -23.714
   2.247        -23.715
   2.250        -23.716
   2.252        -23.716
   2.254        -23.717
   2.256        -23.718
   2.259        -23.719
   2.261        -23.720
   2.263        -23.721
   2.265        -23.722
   2.267        -23.722
   2.269        -23.723
   2.271        -23.724
   2.274        -23.724
   2.276        -23.725
   2.278        -23.726
   2.280        -23.727
   2.282        -23.727
   2.284        -23.728
   2.287        -23.729
   2.289        -23.729
   2.291        -23.730
   2.293        -23.731
   2.295        -23.731
   2.297        -23.732
   2.299        -23.732
   2.302        -23.732
   2.304        -23.733
   2.306        -23.734
   2.308        -23.734
   2.310        -23.734
   2.313        -23.735
   2.315        -23.735
   2.317        -23.736
   2.319        -23.736
   2.321        -23.737
   2.323        -23.737
   2.326        -23.737
   2.328        -23.738
   2.330        -23.738
   2.332        -23.739
   2.334        -23.739
   2.337        -23.739
   2.339        -23.740
   2.341        -23.740
   2.343        -23.740
   2.345        -23.740
   2.347        -23.741
   2.349        -23.741
   2.352        -23.741
   2.354        -23.741
   2.356        -23.742
   2.358        -23.742
   2.360        -23.742
   2.363        -23.743
   2.365        -23.743
   2.367        -23.743
   2.369        -23.743
   2.371        -23.743
   2.374        -23.744
   2.376        -23.744
   2.378        -23.744
   2.380        -23.744
   2.382        -23.744
   2.384        -23.745
   2.386        -23.745
   2.389        -23.745
   2.391        -23.746
   2.393        -23.746
   2.395        -23.747
   2.397        -23.747
   2.400        -23.747
   2.402        -23.748
   2.404        -23.748
   2.406        -23.749
   2.408        -23.750
   2.410        -23.751
   2.413        -23.752
   2.415        -23.753
   2.417        -23.754
   2.419        -23.755
   2.421        -23.756
   2.423        -23.757
   2.425        -23.757
   2.428        -23.758
   2.430        -23.759
   2.432        -23.759
   2.434        -23.760
   2.436        -23.761
   2.439        -23.761
   2.441        -23.762
   2.443        -23.763
   2.445        -23.763
   2.447        -23.763
   2.449        -23.763
   2.452        -23.763
   2.454        -23.763
   2.456        -23.763
   2.458        -23.763
   2.460        -23.763
   2.462        -23.762
   2.465        -23.762
   2.467        -23.762
   2.469        -23.762
   2.471        -23.762
   2.473        -23.762
   2.475        -23.761
   2.478        -23.761
   2.480        -23.761
   2.482        -23.761
   2.484        -23.760
   2.486        -23.760
   2.489        -23.760
   2.491        -23.760
   2.493        -23.759
   2.495        -23.759
   2.497        -23.759
   2.499        -23.759
   2.502        -23.759
   2.504        -23.758
   2.506        -23.758
   2.508        -23.758
   2.510        -23.758
   2.512        -23.758
   2.514        -23.757
   2.517        -23.757
   2.519        -23.757
   2.521        -23.757
   2.523        -23.756
   2.525        -23.756
   2.528        -23.756
   2.530        -23.756
   2.532        -23.756
   2.534        -23.756
   2.536        -23.756
   2.538        -23.756
   2.541        -23.755
   2.543        -23.755
   2.545        -23.755
   2.547        -23.755
   2.549        -23.755
   2.552        -23.755
   2.554        -23.755
   2.556        -23.755
   2.558        -23.755
   2.560        -23.755
   2.562        -23.755
   2.565        -23.755
   2.567        -23.756
   2.569        -23.755
   2.571        -23.756
   2.573        -23.756
   2.575        -23.756
   2.578        -23.757
   2.580        -23.757
   2.582        -23.758
   2.584        -23.758
   2.586        -23.758
   2.588        -23.759
   2.590        -23.759
   2.593        -23.760
   2.595        -23.761
   2.597        -23.761
   2.599        -23.762
   2.601        -23.763
   2.604        -23.764
   2.606        -23.765
   2.608        -23.766
   2.610        -23.766
   2.612        -23.768
   2.614        -23.769
   2.617        -23.771
   2.619        -23.772
   2.621        -23.774
   2.623        -23.776
   2.625        -23.777
   2.627        -23.779
   2.630        -23.780
   2.632        -23.782
   2.634        -23.785
   2.636        -23.787
   2.638        -23.790
   2.641        -23.793
   2.643        -23.796
   2.645        -23.799
   2.647        -23.802
   2.649        -23.804
   2.651        -23.807
   2.654        -23.811
   2.656        -23.816
   2.658        -23.820
   2.660        -23.825
   2.662        -23.830
   2.664        -23.834
   2.666        -23.839
   2.669        -23.844
   2.671        -23.849
   2.673        -23.853
   2.675        -23.859
   2.677        -23.866
   2.680        -23.873
   2.682        -23.879
   2.684        -23.886
   2.686        -23.892
   2.688        -23.899
   2.690        -23.905
   2.693        -23.912
   2.695        -23.918
   2.697        -23.925
   2.699        -23.931
   2.701        -23.938
   2.703        -23.944
   2.706        -23.950
   2.708        -23.957
   2.710        -23.963
   2.712        -23.970
   2.714        -23.976
   2.716        -23.982
   2.719        -23.988
   2.721        -23.993
   2.723        -23.999
   2.725        -24.004
   2.727        -24.010
   2.729        -24.015
   2.732        -24.021
   2.734        -24.026
   2.736        -24.032
   2.738        -24.037
   2.740        -24.042
   2.743        -24.047
   2.745        -24.052
   2.747        -24.057
   2.749        -24.061
   2.751        -24.066
   2.753        -24.071
   2.756        -24.076
   2.758        -24.081
   2.760        -24.085
   2.762        -24.090
   2.764        -24.095
   2.766        -24.099
   2.769        -24.104
   2.771        -24.108
   2.773        -24.113
   2.775        -24.117
   2.777        -24.122
   2.779        -24.126
   2.782        -24.130
   2.784        -24.134
   2.786        -24.138
   2.788        -24.142
   2.790        -24.146
   2.792        -24.150
   2.795        -24.154
   2.797        -24.158
   2.799        -24.162
   2.801        -24.166
   2.803        -24.169
   2.805        -24.173
   2.808        -24.177
   2.810        -24.181
   2.812        -24.184
   2.814        -24.188
   2.816        -24.192
   2.819        -24.195
   2.821        -24.199
   2.823        -24.202
   2.825        -24.205
   2.827        -24.209
   2.829        -24.212
   2.832        -24.215
   2.834        -24.219
   2.836        -24.222
   2.838        -24.225
   2.840        -24.228
   2.842        -24.231
   2.845        -24.234
   2.847        -24.237
   2.849        -24.240
   2.851        -24.243
   2.853        -24.246
   2.855        -24.249
   2.858        -24.251
   2.860        -24.254
   2.862        -24.257
   2.864        -24.259
   2.866        -24.262
   2.868        -24.264
   2.871        -24.267
   2.873        -24.269
   2.875        -24.272
   2.877        -24.275
   2.879        -24.277
   2.881        -24.279
   2.884        -24.282
   2.886        -24.284
   2.888        -24.286
   2.890        -24.289
   2.892        -24.291
   2.894        -24.293
   2.897        -24.295
   2.899        -24.298
   2.901        -24.300
   2.903        -24.302
   2.905        -24.304
   2.908        -24.306
   2.910        -24.308
   2.912        -24.310
   2.914        -24.312
   2.916        -24.314
   2.918        -24.315
   2.921        -24.317
   2.923        -24.319
   2.925        -24.321
   2.927        -24.323
   2.929        -24.324
   2.931        -24.326
   2.934        -24.327
   2.936        -24.328
   2.938        -24.330
   2.940        -24.332
   2.942        -24.333
   2.944        -24.335
   2.947        -24.336
   2.949        -24.338
   2.951        -24.339
   2.953        -24.340
   2.955        -24.342
   2.957        -24.343
   2.960        -24.344
   2.962        -24.346
   2.964        -24.347
   2.966        -24.348
   2.968        -24.350
   2.970        -24.351
   2.973        -24.352
   2.975        -24.353
   2.977        -24.355
   2.979        -24.356
   2.981        -24.357
   2.984        -24.358
   2.986        -24.360
   2.988        -24.361
   2.990        -24.362
   2.992        -24.363
   2.994        -24.364
   2.997        -24.366
   2.999        -24.367
   3.001        -24.368
   3.003        -24.369
   3.005        -24.370
   3.007        -24.371
   3.010        -24.372
   3.012        -24.373
   3.014        -24.375
   3.016        -24.376
   3.018        -24.377
   3.020        -24.378
   3.023        -24.379
   3.025        -24.380
   3.027        -24.381
   3.029        -24.382
   3.031        -24.383
   3.033        -24.384
   3.036        -24.385
   3.038        -24.387
   3.040        -24.388
   3.042        -24.389
   3.044        -24.390
   3.046        -24.391
   3.049        -24.392
   3.051        -24.393
   3.053        -24.394
   3.055        -24.395
   3.057        -24.396
   3.060        -24.397
   3.062        -24.398
   3.064        -24.399
   3.066        -24.400
   3.068        -24.401
   3.070        -24.402
   3.073        -24.403
   3.075        -24.404
   3.077        -24.405
   3.079        -24.407
   3.081        -24.408
   3.083        -24.409
   3.086        -24.410
   3.088        -24.411
   3.090        -24.412
   3.092        -24.413
   3.094        -24.414
   3.096        -24.415
   3.099        -24.416
   3.101        -24.417
   3.103        -24.418
   3.105        -24.419
   3.107        -24.420
   3.109        -24.421
   3.112        -24.422
   3.114        -24.423
   3.116        -24.424
   3.118        -24.425
   3.120        -24.426
   3.123        -24.427
   3.125        -24.427
   3.127        -24.428
   3.129        -24.429
   3.131        -24.430
   3.133        -24.432
   3.136        -24.432
   3.138        -24.433
   3.140        -24.434
   3.142        -24.435
   3.144        -24.436
   3.146        -24.437
   3.149        -24.438
   3.151        -24.439
   3.153        -24.440
   3.155        -24.441
   3.157        -24.442
   3.159        -24.443
   3.162        -24.444
   3.164        -24.445
   3.166        -24.446
   3.168        -24.447
   3.170        -24.448
   3.172        -24.448
   3.175        -24.449
   3.177        -24.451
   3.179        -24.451
   3.181        -24.452
   3.183        -24.453
   3.185        -24.454
   3.188        -24.455
   3.190        -24.456
   3.192        -24.457
   3.194        -24.458
   3.196        -24.459
   3.199        -24.460
   3.201        -24.460
   3.203        -24.461
   3.205        -24.462
   3.207        -24.463
   3.209        -24.464
   3.212        -24.465
   3.214        -24.466
   3.216        -24.467
   3.218        -24.468
   3.220        -24.469
   3.222        -24.469
   3.225        -24.470
   3.227        -24.471
   3.229        -24.472
   3.231        -24.473
   3.233        -24.474
   3.236        -24.475
   3.237        -24.476
   3.240        -24.477
   3.242        -24.478
   3.244        -24.478
   3.246        -24.479
   3.248        -24.480
   3.251        -24.481
   3.253        -24.481
   3.255        -24.482
   3.257        -24.483
   3.259        -24.484
   3.261        -24.485
   3.263        -24.485
   3.266        -24.486
   3.268        -24.487
   3.270        -24.488
   3.272        -24.489
   3.274        -24.489
   3.277        -24.490
   3.279        -24.491
   3.281        -24.491
   3.283        -24.492
   3.285        -24.493
   3.287        -24.493
   3.290        -24.494
   3.292        -24.495
   3.294        -24.496
   3.296        -24.496
   3.298        -24.497
   3.301        -24.498
   3.303        -24.499
   3.305        -24.501
   3.307        -24.502
   3.309        -24.503
   3.311        -24.504
   3.313        -24.505
   3.316        -24.506
   3.318        -24.508
   3.320        -24.509
   3.322        -24.510
   3.324        -24.511
   3.327        -24.513
   3.329        -24.514
   3.331        -24.515
   3.333        -24.516
   3.335        -24.517
   3.337        -24.518
   3.340        -24.520
   3.342        -24.521
   3.344        -24.522
   3.346        -24.523
   3.348        -24.524
   3.350        -24.525
   3.352        -24.526
   3.355        -24.528
   3.357        -24.529
   3.359        -24.530
   3.361        -24.531
   3.363        -24.532
   3.366        -24.533
   3.368        -24.534
   3.370        -24.536
   3.372        -24.537
   3.374        -24.538
   3.376        -24.539
   3.379        -24.540
   3.381        -24.541
   3.383        -24.542
   3.385        -24.543
   3.387        -24.545
   3.389        -24.545
   3.392        -24.546
   3.394        -24.548
   3.396        -24.549
   3.398        -24.550
   3.400        -24.551
   3.402        -24.552
   3.405        -24.553
   3.407        -24.554
   3.409        -24.555
   3.411        -24.556
   3.413        -24.557
   3.416        -24.558
   3.418        -24.559
   3.420        -24.560
   3.422        -24.561
   3.424        -24.562
   3.426        -24.563
   3.429        -24.565
   3.431        -24.566
   3.433        -24.566
   3.435        -24.568
   3.437        -24.568
   3.439        -24.570
   3.442        -24.571
   3.444        -24.572
   3.446        -24.573
   3.448        -24.574
   3.450        -24.575
   3.452        -24.576
   3.455        -24.577
   3.457        -24.578
   3.459        -24.579
   3.461        -24.580
   3.463        -24.581
   3.466        -24.582
   3.468        -24.583
   3.470        -24.584
   3.472        -24.585
   3.474        -24.586
   3.476        -24.587
   3.478        -24.588
   3.481        -24.589
   3.483        -24.590
   3.485        -24.591
   3.487        -24.592
   3.489        -24.593
   3.492        -24.594
   3.494        -24.595
   3.496        -24.596
   3.498        -24.597
   3.500        -24.598
   3.502        -24.599
   3.505        -24.600
   3.507        -24.601
   3.509        -24.602
   3.511        -24.603
   3.513        -24.604
   3.515        -24.604
   3.518        -24.605
   3.520        -24.606
   3.522        -24.607
   3.524        -24.608
   3.526        -24.609
   3.528        -24.610
   3.531        -24.611
   3.533        -24.612
   3.535        -24.613
   3.537        -24.614
   3.539        -24.615
   3.541        -24.616
   3.544        -24.617
   3.546        -24.618
   3.548        -24.619
   3.550        -24.619
   3.552        -24.620
   3.555        -24.621
   3.557        -24.622
   3.559        -24.623
   3.561        -24.624
   3.563        -24.625
   3.565        -24.626
   3.568        -24.627
   3.570        -24.627
   3.572        -24.628
   3.574        -24.629
   3.576        -24.630
   3.578        -24.631
   3.581        -24.632
   3.583        -24.633
   3.585        -24.634
   3.587        -24.634
   3.589        -24.635
   3.591        -24.636
   3.594        -24.637
   3.596        -24.638
   3.598        -24.639
   3.600        -24.639
   3.602        -24.640
   3.604        -24.641
   3.607        -24.642
   3.609        -24.643
   3.611        -24.643
   3.613        -24.644
   3.615        -24.645
   3.617        -24.646
   3.620        -24.647
   3.622        -24.647
   3.624        -24.648
   3.626        -24.649
   3.628        -24.650
   3.630        -24.651
   3.633        -24.652
   3.635        -24.652
   3.637        -24.653
   3.639        -24.654
   3.641        -24.655
   3.644        -24.656
   3.646        -24.656
   3.648        -24.657
   3.650        -24.658
   3.652        -24.659
   3.654        -24.660
   3.657        -24.661
   3.659        -24.662
   3.661        -24.662
   3.663        -24.663
   3.665        -24.664
   3.667        -24.665
   3.670        -24.666
   3.672        -24.667
   3.674        -24.668
   3.676        -24.669
   3.678        -24.670
   3.680        -24.671
   3.683        -24.672
   3.685        -24.673
   3.687        -24.674
   3.689        -24.675
   3.691        -24.676
   3.693        -24.677
   3.696        -24.678
   3.698        -24.679
   3.700        -24.680
   3.702        -24.682
   3.704        -24.683
   3.706        -24.684
   3.709        -24.685
   3.711        -24.686
   3.713        -24.687
   3.715        -24.689
   3.717        -24.690
   3.719        -24.691
   3.722        -24.693
   3.724        -24.694
   3.726        -24.695
   3.728        -24.696
   3.730        -24.698
   3.733        -24.699
   3.735        -24.700
   3.737        -24.702
   3.739        -24.703
   3.741        -24.704
   3.743        -24.706
   3.746        -24.707
   3.748        -24.708
   3.750        -24.710
   3.752        -24.711
   3.754        -24.712
   3.756        -24.714
   3.759        -24.715
   3.761        -24.717
   3.763        -24.718
   3.765        -24.720
   3.767        -24.721
   3.769        -24.723
   3.772        -24.724
   3.774        -24.725
   3.776        -24.727
   3.778        -24.729
   3.780        -24.730
   3.782        -24.732
   3.785        -24.733
   3.787        -24.735
   3.789        -24.737
   3.791        -24.738
   3.793        -24.740
   3.795        -24.741
   3.798        -24.743
   3.800        -24.745
   3.802        -24.747
   3.804        -24.748
   3.806        -24.750
   3.809        -24.752
   3.811        -24.753
   3.813        -24.755
   3.815        -24.757
   3.817        -24.759
   3.819        -24.760
   3.822        -24.762
   3.824        -24.764
   3.826        -24.765
   3.828        -24.767
   3.830        -24.769
   3.832        -24.770
   3.835        -24.772
   3.837        -24.774
   3.839        -24.775
   3.841        -24.777
   3.843        -24.778
   3.845        -24.779
   3.848        -24.780
   3.850        -24.781
   3.852        -24.783
   3.854        -24.784
   3.856        -24.785
   3.858        -24.786
   3.861        -24.787
   3.863        -24.788
   3.865        -24.789
   3.867        -24.789
   3.869        -24.790
   3.871        -24.791
   3.874        -24.791
   3.876        -24.792
   3.878        -24.793
   3.880        -24.794
   3.882        -24.794
   3.885        -24.795
   3.887        -24.796
   3.889        -24.797
   3.891        -24.797
   3.899        -24.800
   3.912        -24.804
   3.925        -24.808
   3.938        -24.812
   3.951        -24.816
   3.964        -24.820
   3.977        -24.824
   3.990        -24.828
   4.003        -24.832
   4.016        -24.836
   4.029        -24.840
   4.042        -24.844
   4.055        -24.847
   4.068        -24.851
   4.081        -24.855
   4.094        -24.858
   4.107        -24.862
   4.120        -24.865
   4.133        -24.869
   4.146        -24.872
   4.159        -24.875
   4.172        -24.878
   4.185        -24.882
   4.198        -24.885
   4.211        -24.889
   4.224        -24.893
   4.237        -24.898
   4.250        -24.902
   4.263        -24.908
   4.276        -24.914
   4.289        -24.920
   4.302        -24.926
   4.315        -24.934
   4.328        -24.941
   4.341        -24.949
   4.354        -24.958
   4.367        -24.967
   4.380        -24.977
   4.393        -24.986
   4.406        -24.997
   4.420        -25.007
   4.432        -25.018
   4.445        -25.030
   4.459        -25.041
   4.471        -25.053
   4.484        -25.065
   4.498        -25.078
   4.510        -25.090
   4.524        -25.103
   4.537        -25.116
   4.550        -25.130
   4.563        -25.143
   4.576        -25.157
   4.589        -25.171
   4.602        -25.185
   4.615        -25.199
   4.628        -25.214
   4.641        -25.228
   4.654        -25.243
   4.667        -25.258
   4.680        -25.273
   4.693        -25.288
   4.706        -25.303
   4.719        -25.319
   4.732        -25.334
   4.745        -25.350
   4.758        -25.366
   4.771        -25.382
   4.784        -25.398
   4.797        -25.414
   4.810        -25.431
   4.823        -25.448
   4.836        -25.465
   4.849        -25.481
   4.862        -25.498
   4.875        -25.516
   4.888        -25.533
   4.901        -25.551
   4.914        -25.568
   4.927        -25.586
   4.940        -25.604
   4.953        -25.622
   4.966        -25.640
   4.979        -25.659
   4.992        -25.677
   5.005        -25.696
   5.018        -25.715
   5.031        -25.734
   5.044        -25.753
   5.057        -25.772
   5.070        -25.792
   5.083        -25.811
   5.096        -25.831
   5.109        -25.850
   5.123        -25.870
   5.136        -25.890
   5.149        -25.910
   5.162        -25.930
   5.175        -25.950
   5.188        -25.970
   5.201        -25.990
   5.214        -26.011
   5.227        -26.031
   5.240        -26.051
   5.253        -26.071
   5.266        -26.092
   5.279        -26.112
   5.292        -26.133
   5.305        -26.153
   5.318        -26.174
   5.331        -26.195
   5.344        -26.216
   5.357        -26.237
   5.370        -26.258
   5.383        -26.279
   5.396        -26.301
   5.409        -26.323
   5.422        -26.345
   5.435        -26.367
   5.448        -26.389
   5.461        -26.412
   5.474        -26.435
   5.487        -26.458
   5.500        -26.482
   5.513        -26.506
   5.526        -26.530
   5.539        -26.554
   5.552        -26.579
   5.565        -26.604
   5.578        -26.629
   5.591        -26.655
   5.604        -26.681
   5.617        -26.707
   5.630        -26.734
   5.643        -26.761
   5.656        -26.789
   5.669        -26.817
   5.682        -26.845
   5.695        -26.874
   5.708        -26.904
   5.721        -26.933
   5.734        -26.964
   5.748        -26.995
   5.761        -27.027
   5.774        -27.058
   5.787        -27.091
   5.800        -27.125
   5.813        -27.158
   5.826        -27.192
   5.839        -27.228
   5.852        -27.263
   5.865        -27.299
   5.878        -27.337
   5.891        -27.375
   5.904        -27.414
   5.917        -27.453
   5.930        -27.493
   5.943        -27.534
   5.956        -27.576
   5.969        -27.618
   5.982        -27.662
   5.995        -27.707
   6.008        -27.753
   6.021        -27.799
   6.034        -27.846
   6.047        -27.894
   6.060        -27.944
   6.073        -27.995
   6.086        -28.047
   6.099        -28.100
   6.112        -28.154
   6.125        -28.210
   6.138        -28.266
   6.151        -28.324
   6.164        -28.384
   6.177        -28.445
   6.190        -28.506
   6.203        -28.570
   6.216        -28.636
   6.229        -28.702
   6.242        -28.771
   6.255        -28.840
   6.268        -28.913
   6.281        -28.986
   6.294        -29.061
   6.307        -29.138
   6.320        -29.216
   6.334        -29.297
   6.346        -29.380
   6.359        -29.465
   6.372        -29.552
   6.386        -29.642
   6.399        -29.733
   6.411        -29.827
   6.425        -29.923
   6.438        -30.022
   6.451        -30.124
   6.464        -30.226
   6.477        -30.331
   6.490        -30.440
   6.503        -30.553
   6.516        -30.668
   6.529        -30.785
   6.542        -30.906
   6.555        -31.030
   6.568        -31.157
   6.581        -31.287
   6.594        -31.421
   6.607        -31.561
   6.620        -31.703
   6.633        -31.846
   6.646        -31.991
   6.659        -32.144
   6.672        -32.302
   6.685        -32.462
   6.698        -32.626
   6.711        -32.796
   6.724        -32.972
   6.737        -33.150
   6.750        -33.331
   6.763        -33.524
   6.776        -33.726
   6.789        -33.926
   6.802        -34.130
   6.815        -34.340
   6.828        -34.578
   6.841        -34.838
   6.854        -35.137
   6.867        -35.765
   6.880        -36.816
   6.893        -40.526
