# log Energy    log Jnu
# (eV)          (ergs/s/cm2/Hz/Sr)
  -6.864        -20.977
  -6.820        -20.890
  -6.777        -20.803
  -6.734        -20.716
  -6.690        -20.630
  -6.647        -20.543
  -6.603        -20.456
  -6.560        -20.369
  -6.516        -20.282
  -6.473        -20.196
  -6.430        -20.109
  -6.386        -20.022
  -6.343        -19.935
  -6.299        -19.848
  -6.256        -19.761
  -6.212        -19.675
  -6.169        -19.588
  -6.126        -19.501
  -6.082        -19.414
  -6.039        -19.328
  -5.995        -19.241
  -5.952        -19.154
  -5.908        -19.067
  -5.865        -18.981
  -5.822        -18.894
  -5.778        -18.807
  -5.735        -18.721
  -5.691        -18.634
  -5.648        -18.547
  -5.605        -18.460
  -5.561        -18.374
  -5.518        -18.287
  -5.474        -18.201
  -5.431        -18.114
  -5.387        -18.028
  -5.344        -17.941
  -5.300        -17.855
  -5.257        -17.769
  -5.214        -17.682
  -5.170        -17.596
  -5.127        -17.510
  -5.083        -17.424
  -5.040        -17.338
  -4.996        -17.252
  -4.953        -17.166
  -4.910        -17.080
  -4.866        -16.995
  -4.823        -16.909
  -4.779        -16.824
  -4.736        -16.739
  -4.692        -16.654
  -4.649        -16.569
  -4.606        -16.484
  -4.562        -16.400
  -4.519        -16.316
  -4.475        -16.233
  -4.432        -16.149
  -4.388        -16.066
  -4.345        -15.984
  -4.302        -15.902
  -4.258        -15.820
  -4.215        -15.739
  -4.171        -15.659
  -4.128        -15.579
  -4.084        -15.500
  -4.041        -15.423
  -3.998        -15.346
  -3.954        -15.270
  -3.911        -15.195
  -3.867        -15.122
  -3.824        -15.051
  -3.781        -14.981
  -3.737        -14.913
  -3.693        -14.848
  -3.650        -14.784
  -3.607        -14.725
  -3.584        -14.698
  -3.582        -14.690
  -3.580        -14.689
  -3.577        -14.687
  -3.575        -14.684
  -3.573        -14.681
  -3.571        -14.678
  -3.569        -14.676
  -3.567        -14.673
  -3.564        -14.670
  -3.562        -14.667
  -3.560        -14.664
  -3.558        -14.662
  -3.556        -14.659
  -3.554        -14.656
  -3.551        -14.654
  -3.549        -14.651
  -3.547        -14.648
  -3.545        -14.646
  -3.543        -14.643
  -3.540        -14.640
  -3.538        -14.637
  -3.536        -14.635
  -3.534        -14.632
  -3.532        -14.630
  -3.530        -14.627
  -3.528        -14.624
  -3.525        -14.622
  -3.523        -14.619
  -3.521        -14.617
  -3.519        -14.614
  -3.517        -14.612
  -3.514        -14.609
  -3.512        -14.607
  -3.510        -14.604
  -3.508        -14.601
  -3.506        -14.599
  -3.504        -14.596
  -3.502        -14.594
  -3.499        -14.592
  -3.497        -14.589
  -3.495        -14.587
  -3.493        -14.584
  -3.491        -14.582
  -3.488        -14.579
  -3.486        -14.577
  -3.484        -14.574
  -3.482        -14.572
  -3.480        -14.570
  -3.477        -14.568
  -3.475        -14.565
  -3.473        -14.563
  -3.471        -14.560
  -3.469        -14.558
  -3.467        -14.556
  -3.464        -14.554
  -3.462        -14.551
  -3.460        -14.549
  -3.458        -14.547
  -3.456        -14.545
  -3.454        -14.542
  -3.451        -14.540
  -3.449        -14.538
  -3.447        -14.536
  -3.445        -14.534
  -3.443        -14.531
  -3.441        -14.529
  -3.438        -14.527
  -3.436        -14.525
  -3.434        -14.523
  -3.432        -14.521
  -3.430        -14.519
  -3.428        -14.517
  -3.425        -14.515
  -3.423        -14.513
  -3.421        -14.511
  -3.419        -14.509
  -3.417        -14.507
  -3.415        -14.505
  -3.412        -14.503
  -3.410        -14.501
  -3.408        -14.499
  -3.406        -14.497
  -3.404        -14.495
  -3.402        -14.493
  -3.399        -14.491
  -3.397        -14.489
  -3.395        -14.487
  -3.393        -14.486
  -3.391        -14.484
  -3.389        -14.482
  -3.386        -14.480
  -3.384        -14.479
  -3.382        -14.477
  -3.380        -14.475
  -3.378        -14.473
  -3.376        -14.472
  -3.373        -14.470
  -3.371        -14.468
  -3.369        -14.467
  -3.367        -14.465
  -3.365        -14.463
  -3.362        -14.462
  -3.360        -14.460
  -3.358        -14.458
  -3.356        -14.457
  -3.354        -14.455
  -3.352        -14.454
  -3.349        -14.452
  -3.347        -14.451
  -3.345        -14.449
  -3.343        -14.448
  -3.341        -14.447
  -3.339        -14.445
  -3.336        -14.444
  -3.334        -14.442
  -3.332        -14.441
  -3.330        -14.440
  -3.328        -14.438
  -3.326        -14.437
  -3.323        -14.436
  -3.321        -14.434
  -3.319        -14.433
  -3.317        -14.432
  -3.315        -14.431
  -3.313        -14.429
  -3.310        -14.428
  -3.308        -14.427
  -3.306        -14.426
  -3.304        -14.425
  -3.302        -14.424
  -3.300        -14.423
  -3.297        -14.422
  -3.295        -14.420
  -3.293        -14.419
  -3.291        -14.418
  -3.289        -14.417
  -3.287        -14.416
  -3.284        -14.416
  -3.282        -14.415
  -3.280        -14.414
  -3.278        -14.413
  -3.276        -14.412
  -3.273        -14.411
  -3.271        -14.410
  -3.269        -14.410
  -3.267        -14.409
  -3.265        -14.408
  -3.263        -14.407
  -3.260        -14.407
  -3.258        -14.406
  -3.256        -14.405
  -3.254        -14.405
  -3.252        -14.404
  -3.250        -14.403
  -3.247        -14.403
  -3.245        -14.402
  -3.243        -14.402
  -3.241        -14.401
  -3.239        -14.401
  -3.237        -14.400
  -3.234        -14.400
  -3.232        -14.399
  -3.230        -14.399
  -3.228        -14.399
  -3.226        -14.398
  -3.224        -14.398
  -3.221        -14.398
  -3.219        -14.398
  -3.217        -14.397
  -3.215        -14.397
  -3.213        -14.397
  -3.211        -14.397
  -3.208        -14.397
  -3.206        -14.396
  -3.204        -14.396
  -3.202        -14.396
  -3.200        -14.396
  -3.197        -14.396
  -3.195        -14.396
  -3.193        -14.396
  -3.191        -14.396
  -3.189        -14.397
  -3.187        -14.397
  -3.184        -14.397
  -3.182        -14.397
  -3.180        -14.397
  -3.178        -14.397
  -3.176        -14.398
  -3.174        -14.398
  -3.171        -14.398
  -3.169        -14.399
  -3.167        -14.399
  -3.165        -14.400
  -3.163        -14.400
  -3.161        -14.401
  -3.158        -14.401
  -3.156        -14.402
  -3.154        -14.402
  -3.152        -14.403
  -3.150        -14.403
  -3.148        -14.404
  -3.145        -14.405
  -3.143        -14.405
  -3.141        -14.406
  -3.139        -14.407
  -3.137        -14.408
  -3.135        -14.409
  -3.132        -14.410
  -3.130        -14.410
  -3.128        -14.411
  -3.126        -14.412
  -3.124        -14.413
  -3.122        -14.414
  -3.119        -14.415
  -3.117        -14.417
  -3.115        -14.418
  -3.113        -14.419
  -3.111        -14.420
  -3.108        -14.421
  -3.106        -14.423
  -3.104        -14.424
  -3.102        -14.425
  -3.100        -14.427
  -3.098        -14.428
  -3.095        -14.430
  -3.093        -14.431
  -3.091        -14.433
  -3.089        -14.434
  -3.087        -14.436
  -3.085        -14.438
  -3.082        -14.439
  -3.080        -14.441
  -3.078        -14.443
  -3.076        -14.444
  -3.074        -14.446
  -3.072        -14.448
  -3.069        -14.450
  -3.067        -14.452
  -3.065        -14.454
  -3.063        -14.456
  -3.061        -14.458
  -3.059        -14.460
  -3.056        -14.462
  -3.054        -14.464
  -3.052        -14.467
  -3.050        -14.469
  -3.048        -14.471
  -3.046        -14.474
  -3.043        -14.476
  -3.041        -14.478
  -3.039        -14.481
  -3.037        -14.483
  -3.035        -14.486
  -3.032        -14.488
  -3.030        -14.491
  -3.028        -14.494
  -3.026        -14.497
  -3.024        -14.499
  -3.022        -14.502
  -3.019        -14.505
  -3.017        -14.508
  -3.015        -14.511
  -3.013        -14.514
  -3.011        -14.517
  -3.009        -14.520
  -3.006        -14.523
  -3.004        -14.526
  -3.002        -14.529
  -3.000        -14.533
  -2.998        -14.536
  -2.996        -14.539
  -2.993        -14.543
  -2.991        -14.546
  -2.989        -14.550
  -2.987        -14.553
  -2.985        -14.557
  -2.983        -14.560
  -2.980        -14.564
  -2.978        -14.568
  -2.976        -14.572
  -2.974        -14.575
  -2.972        -14.579
  -2.970        -14.583
  -2.967        -14.587
  -2.965        -14.591
  -2.963        -14.595
  -2.961        -14.599
  -2.959        -14.604
  -2.956        -14.608
  -2.954        -14.612
  -2.952        -14.616
  -2.950        -14.621
  -2.948        -14.625
  -2.946        -14.630
  -2.944        -14.634
  -2.941        -14.639
  -2.939        -14.644
  -2.937        -14.648
  -2.935        -14.653
  -2.933        -14.658
  -2.930        -14.663
  -2.928        -14.668
  -2.926        -14.673
  -2.924        -14.678
  -2.922        -14.683
  -2.920        -14.688
  -2.917        -14.693
  -2.915        -14.698
  -2.913        -14.704
  -2.911        -14.709
  -2.909        -14.715
  -2.907        -14.720
  -2.904        -14.726
  -2.902        -14.731
  -2.900        -14.737
  -2.898        -14.743
  -2.896        -14.748
  -2.894        -14.754
  -2.891        -14.760
  -2.889        -14.766
  -2.887        -14.772
  -2.885        -14.779
  -2.883        -14.785
  -2.880        -14.791
  -2.878        -14.797
  -2.876        -14.804
  -2.874        -14.810
  -2.872        -14.816
  -2.870        -14.823
  -2.867        -14.830
  -2.865        -14.836
  -2.863        -14.843
  -2.861        -14.850
  -2.859        -14.857
  -2.857        -14.864
  -2.855        -14.870
  -2.852        -14.878
  -2.850        -14.885
  -2.848        -14.892
  -2.846        -14.899
  -2.843        -14.907
  -2.842        -14.914
  -2.839        -14.922
  -2.837        -14.929
  -2.835        -14.937
  -2.833        -14.945
  -2.831        -14.952
  -2.828        -14.960
  -2.826        -14.968
  -2.824        -14.976
  -2.822        -14.984
  -2.820        -14.992
  -2.817        -15.000
  -2.815        -15.009
  -2.813        -15.017
  -2.811        -15.025
  -2.809        -15.034
  -2.807        -15.042
  -2.805        -15.051
  -2.802        -15.060
  -2.800        -15.069
  -2.798        -15.078
  -2.796        -15.086
  -2.794        -15.095
  -2.792        -15.104
  -2.789        -15.114
  -2.787        -15.123
  -2.785        -15.132
  -2.783        -15.141
  -2.781        -15.151
  -2.779        -15.161
  -2.776        -15.170
  -2.774        -15.180
  -2.772        -15.190
  -2.770        -15.200
  -2.767        -15.210
  -2.765        -15.220
  -2.763        -15.230
  -2.761        -15.240
  -2.759        -15.251
  -2.757        -15.261
  -2.754        -15.272
  -2.753        -15.282
  -2.750        -15.293
  -2.748        -15.303
  -2.746        -15.314
  -2.744        -15.325
  -2.741        -15.336
  -2.739        -15.347
  -2.737        -15.358
  -2.735        -15.370
  -2.733        -15.381
  -2.731        -15.392
  -2.729        -15.404
  -2.726        -15.415
  -2.724        -15.427
  -2.722        -15.439
  -2.720        -15.451
  -2.718        -15.463
  -2.716        -15.475
  -2.713        -15.487
  -2.711        -15.499
  -2.709        -15.512
  -2.707        -15.524
  -2.705        -15.537
  -2.703        -15.549
  -2.700        -15.562
  -2.698        -15.575
  -2.696        -15.588
  -2.694        -15.601
  -2.692        -15.614
  -2.689        -15.627
  -2.687        -15.640
  -2.685        -15.654
  -2.683        -15.667
  -2.681        -15.681
  -2.679        -15.695
  -2.677        -15.709
  -2.674        -15.723
  -2.672        -15.737
  -2.670        -15.751
  -2.668        -15.765
  -2.666        -15.779
  -2.663        -15.794
  -2.661        -15.808
  -2.659        -15.823
  -2.657        -15.838
  -2.655        -15.852
  -2.653        -15.867
  -2.650        -15.883
  -2.648        -15.898
  -2.646        -15.913
  -2.644        -15.928
  -2.642        -15.944
  -2.640        -15.960
  -2.637        -15.975
  -2.635        -15.991
  -2.633        -16.007
  -2.631        -16.023
  -2.629        -16.039
  -2.626        -16.056
  -2.624        -16.072
  -2.622        -16.089
  -2.620        -16.105
  -2.618        -16.122
  -2.616        -16.139
  -2.614        -16.156
  -2.611        -16.173
  -2.609        -16.190
  -2.607        -16.207
  -2.605        -16.225
  -2.603        -16.243
  -2.600        -16.260
  -2.598        -16.278
  -2.596        -16.296
  -2.594        -16.314
  -2.592        -16.332
  -2.590        -16.351
  -2.587        -16.369
  -2.585        -16.388
  -2.583        -16.406
  -2.581        -16.425
  -2.579        -16.444
  -2.577        -16.463
  -2.574        -16.483
  -2.572        -16.502
  -2.570        -16.521
  -2.568        -16.541
  -2.566        -16.561
  -2.564        -16.580
  -2.561        -16.600
  -2.559        -16.621
  -2.557        -16.641
  -2.555        -16.661
  -2.553        -16.682
  -2.551        -16.702
  -2.548        -16.723
  -2.546        -16.744
  -2.544        -16.765
  -2.542        -16.786
  -2.540        -16.808
  -2.538        -16.829
  -2.535        -16.851
  -2.533        -16.873
  -2.531        -16.894
  -2.529        -16.916
  -2.527        -16.939
  -2.525        -16.961
  -2.522        -16.983
  -2.520        -17.006
  -2.518        -17.029
  -2.516        -17.052
  -2.514        -17.075
  -2.511        -17.098
  -2.509        -17.121
  -2.507        -17.145
  -2.505        -17.168
  -2.503        -17.192
  -2.501        -17.216
  -2.498        -17.240
  -2.496        -17.265
  -2.494        -17.289
  -2.492        -17.314
  -2.490        -17.338
  -2.488        -17.363
  -2.485        -17.388
  -2.483        -17.413
  -2.481        -17.439
  -2.479        -17.464
  -2.477        -17.490
  -2.475        -17.516
  -2.472        -17.542
  -2.470        -17.568
  -2.468        -17.594
  -2.466        -17.621
  -2.464        -17.648
  -2.462        -17.674
  -2.459        -17.701
  -2.457        -17.728
  -2.455        -17.756
  -2.453        -17.783
  -2.451        -17.811
  -2.448        -17.839
  -2.446        -17.867
  -2.444        -17.895
  -2.442        -17.923
  -2.440        -17.952
  -2.438        -17.980
  -2.435        -18.009
  -2.433        -18.038
  -2.431        -18.067
  -2.429        -18.097
  -2.427        -18.126
  -2.425        -18.156
  -2.422        -18.186
  -2.420        -18.216
  -2.418        -18.246
  -2.416        -18.277
  -2.414        -18.307
  -2.412        -18.338
  -2.409        -18.369
  -2.407        -18.400
  -2.405        -18.431
  -2.403        -18.463
  -2.401        -18.494
  -2.398        -18.526
  -2.396        -18.558
  -2.394        -18.590
  -2.392        -18.622
  -2.390        -18.655
  -2.388        -18.687
  -2.386        -18.720
  -2.383        -18.753
  -2.381        -18.786
  -2.379        -18.819
  -2.377        -18.853
  -2.375        -18.886
  -2.372        -18.920
  -2.370        -18.954
  -2.368        -18.988
  -2.366        -19.022
  -2.364        -19.056
  -2.362        -19.090
  -2.359        -19.125
  -2.357        -19.159
  -2.355        -19.194
  -2.353        -19.228
  -2.351        -19.263
  -2.349        -19.297
  -2.346        -19.332
  -2.344        -19.366
  -2.342        -19.401
  -2.340        -19.435
  -2.338        -19.470
  -2.336        -19.504
  -2.333        -19.538
  -2.331        -19.572
  -2.329        -19.606
  -2.327        -19.640
  -2.325        -19.673
  -2.323        -19.706
  -2.320        -19.738
  -2.318        -19.770
  -2.316        -19.801
  -2.314        -19.832
  -2.312        -19.863
  -2.309        -19.893
  -2.307        -19.922
  -2.305        -19.950
  -2.303        -19.977
  -2.301        -20.003
  -2.299        -20.029
  -2.297        -20.054
  -2.294        -20.077
  -2.292        -20.099
  -2.290        -20.120
  -2.288        -20.141
  -2.286        -20.159
  -2.283        -20.177
  -2.281        -20.194
  -2.279        -20.209
  -2.277        -20.223
  -2.275        -20.236
  -2.273        -20.247
  -2.270        -20.258
  -2.268        -20.267
  -2.266        -20.276
  -2.264        -20.283
  -2.262        -20.290
  -2.260        -20.295
  -2.257        -20.300
  -2.255        -20.304
  -2.253        -20.307
  -2.251        -20.310
  -2.249        -20.311
  -2.247        -20.313
  -2.244        -20.313
  -2.242        -20.313
  -2.240        -20.313
  -2.238        -20.312
  -2.236        -20.311
  -2.234        -20.310
  -2.231        -20.308
  -2.229        -20.306
  -2.227        -20.304
  -2.225        -20.301
  -2.223        -20.298
  -2.220        -20.296
  -2.218        -20.293
  -2.216        -20.289
  -2.214        -20.286
  -2.212        -20.283
  -2.210        -20.279
  -2.207        -20.275
  -2.205        -20.272
  -2.203        -20.268
  -2.201        -20.264
  -2.199        -20.260
  -2.197        -20.256
  -2.194        -20.252
  -2.192        -20.248
  -2.190        -20.244
  -2.188        -20.240
  -2.186        -20.235
  -2.184        -20.231
  -2.181        -20.227
  -2.179        -20.223
  -2.177        -20.219
  -2.175        -20.214
  -2.173        -20.210
  -2.171        -20.206
  -2.168        -20.202
  -2.166        -20.198
  -2.164        -20.193
  -2.162        -20.189
  -2.160        -20.184
  -2.158        -20.180
  -2.155        -20.176
  -2.153        -20.171
  -2.151        -20.167
  -2.149        -20.163
  -2.147        -20.158
  -2.145        -20.154
  -2.142        -20.150
  -2.140        -20.145
  -2.138        -20.141
  -2.136        -20.137
  -2.134        -20.133
  -2.131        -20.128
  -2.129        -20.124
  -2.127        -20.119
  -2.125        -20.115
  -2.123        -20.111
  -2.121        -20.107
  -2.118        -20.102
  -2.116        -20.098
  -2.114        -20.093
  -2.112        -20.089
  -2.110        -20.085
  -2.108        -20.080
  -2.105        -20.076
  -2.103        -20.072
  -2.101        -20.068
  -2.099        -20.063
  -2.097        -20.059
  -2.095        -20.054
  -2.092        -20.050
  -2.090        -20.046
  -2.088        -20.041
  -2.086        -20.037
  -2.084        -20.033
  -2.082        -20.028
  -2.079        -20.024
  -2.077        -20.020
  -2.075        -20.015
  -2.073        -20.011
  -2.071        -20.007
  -2.069        -20.002
  -2.066        -19.998
  -2.064        -19.994
  -2.062        -19.989
  -2.060        -19.985
  -2.058        -19.981
  -2.056        -19.976
  -2.053        -19.972
  -2.051        -19.968
  -2.049        -19.963
  -2.047        -19.959
  -2.045        -19.955
  -2.043        -19.950
  -2.040        -19.946
  -2.038        -19.942
  -2.036        -19.937
  -2.034        -19.933
  -2.032        -19.928
  -2.029        -19.924
  -2.027        -19.920
  -2.025        -19.915
  -2.023        -19.911
  -2.021        -19.907
  -2.019        -19.902
  -2.016        -19.898
  -2.014        -19.894
  -2.012        -19.889
  -2.010        -19.885
  -2.008        -19.881
  -2.006        -19.876
  -2.003        -19.872
  -2.001        -19.868
  -1.999        -19.863
  -1.997        -19.859
  -1.995        -19.855
  -1.993        -19.850
  -1.990        -19.846
  -1.988        -19.844
  -1.986        -19.844
  -1.984        -19.845
  -1.982        -19.846
  -1.980        -19.847
  -1.977        -19.848
  -1.975        -19.849
  -1.973        -19.850
  -1.971        -19.850
  -1.969        -19.851
  -1.967        -19.852
  -1.964        -19.853
  -1.962        -19.854
  -1.960        -19.855
  -1.958        -19.856
  -1.956        -19.856
  -1.953        -19.857
  -1.951        -19.858
  -1.949        -19.859
  -1.947        -19.860
  -1.945        -19.861
  -1.943        -19.862
  -1.940        -19.862
  -1.938        -19.863
  -1.936        -19.864
  -1.934        -19.865
  -1.932        -19.866
  -1.930        -19.867
  -1.927        -19.868
  -1.925        -19.868
  -1.923        -19.869
  -1.921        -19.870
  -1.919        -19.871
  -1.917        -19.872
  -1.914        -19.873
  -1.912        -19.874
  -1.910        -19.874
  -1.908        -19.875
  -1.906        -19.876
  -1.904        -19.877
  -1.901        -19.878
  -1.899        -19.879
  -1.897        -19.880
  -1.895        -19.880
  -1.893        -19.881
  -1.891        -19.882
  -1.888        -19.883
  -1.886        -19.884
  -1.884        -19.885
  -1.882        -19.886
  -1.880        -19.886
  -1.877        -19.887
  -1.875        -19.888
  -1.873        -19.889
  -1.871        -19.890
  -1.869        -19.891
  -1.867        -19.892
  -1.864        -19.892
  -1.862        -19.893
  -1.860        -19.894
  -1.858        -19.895
  -1.856        -19.896
  -1.853        -19.897
  -1.851        -19.897
  -1.849        -19.898
  -1.847        -19.899
  -1.845        -19.900
  -1.843        -19.901
  -1.841        -19.902
  -1.838        -19.903
  -1.836        -19.904
  -1.834        -19.904
  -1.832        -19.905
  -1.830        -19.906
  -1.828        -19.907
  -1.825        -19.908
  -1.823        -19.909
  -1.821        -19.909
  -1.819        -19.910
  -1.817        -19.911
  -1.815        -19.912
  -1.812        -19.913
  -1.810        -19.914
  -1.808        -19.914
  -1.806        -19.915
  -1.804        -19.916
  -1.801        -19.917
  -1.799        -19.918
  -1.797        -19.919
  -1.795        -19.919
  -1.793        -19.920
  -1.791        -19.921
  -1.788        -19.922
  -1.786        -19.923
  -1.784        -19.924
  -1.782        -19.925
  -1.780        -19.926
  -1.777        -19.927
  -1.775        -19.927
  -1.773        -19.928
  -1.771        -19.929
  -1.769        -19.930
  -1.767        -19.931
  -1.764        -19.932
  -1.763        -19.932
  -1.760        -19.933
  -1.758        -19.934
  -1.756        -19.935
  -1.754        -19.936
  -1.752        -19.937
  -1.749        -19.938
  -1.747        -19.938
  -1.745        -19.939
  -1.743        -19.940
  -1.741        -19.941
  -1.739        -19.942
  -1.736        -19.943
  -1.734        -19.944
  -1.732        -19.945
  -1.730        -19.945
  -1.728        -19.946
  -1.726        -19.947
  -1.723        -19.948
  -1.721        -19.949
  -1.719        -19.950
  -1.717        -19.951
  -1.715        -19.952
  -1.713        -19.952
  -1.710        -19.953
  -1.708        -19.954
  -1.706        -19.955
  -1.704        -19.956
  -1.702        -19.957
  -1.699        -19.958
  -1.697        -19.959
  -1.695        -19.960
  -1.693        -19.960
  -1.691        -19.961
  -1.689        -19.962
  -1.686        -19.963
  -1.684        -19.964
  -1.682        -19.965
  -1.680        -19.966
  -1.678        -19.966
  -1.675        -19.968
  -1.673        -19.968
  -1.671        -19.969
  -1.669        -19.970
  -1.667        -19.971
  -1.665        -19.972
  -1.663        -19.973
  -1.660        -19.974
  -1.658        -19.975
  -1.656        -19.976
  -1.654        -19.977
  -1.652        -19.978
  -1.650        -19.979
  -1.647        -19.980
  -1.645        -19.980
  -1.643        -19.981
  -1.641        -19.982
  -1.639        -19.983
  -1.637        -19.984
  -1.634        -19.985
  -1.632        -19.986
  -1.630        -19.987
  -1.628        -19.988
  -1.626        -19.989
  -1.623        -19.990
  -1.621        -19.991
  -1.619        -19.992
  -1.617        -19.993
  -1.615        -19.994
  -1.613        -19.994
  -1.611        -19.995
  -1.608        -19.996
  -1.606        -19.997
  -1.604        -19.998
  -1.602        -19.999
  -1.600        -20.000
  -1.597        -20.001
  -1.595        -20.002
  -1.593        -20.003
  -1.591        -20.004
  -1.589        -20.005
  -1.587        -20.006
  -1.584        -20.007
  -1.582        -20.008
  -1.580        -20.009
  -1.578        -20.010
  -1.576        -20.011
  -1.573        -20.013
  -1.571        -20.014
  -1.569        -20.015
  -1.567        -20.016
  -1.565        -20.017
  -1.563        -20.018
  -1.561        -20.019
  -1.558        -20.020
  -1.556        -20.021
  -1.554        -20.022
  -1.552        -20.023
  -1.550        -20.024
  -1.547        -20.025
  -1.545        -20.026
  -1.543        -20.027
  -1.541        -20.029
  -1.539        -20.030
  -1.537        -20.031
  -1.534        -20.032
  -1.532        -20.033
  -1.530        -20.034
  -1.528        -20.035
  -1.526        -20.036
  -1.524        -20.038
  -1.522        -20.039
  -1.519        -20.040
  -1.517        -20.041
  -1.515        -20.042
  -1.513        -20.043
  -1.511        -20.044
  -1.508        -20.046
  -1.506        -20.047
  -1.504        -20.048
  -1.502        -20.049
  -1.500        -20.050
  -1.498        -20.052
  -1.495        -20.053
  -1.493        -20.054
  -1.491        -20.055
  -1.489        -20.057
  -1.487        -20.058
  -1.484        -20.059
  -1.482        -20.060
  -1.480        -20.062
  -1.478        -20.063
  -1.476        -20.064
  -1.474        -20.066
  -1.472        -20.067
  -1.469        -20.068
  -1.467        -20.070
  -1.465        -20.071
  -1.463        -20.072
  -1.461        -20.074
  -1.458        -20.075
  -1.456        -20.076
  -1.454        -20.078
  -1.452        -20.079
  -1.450        -20.080
  -1.448        -20.082
  -1.445        -20.083
  -1.443        -20.085
  -1.441        -20.086
  -1.439        -20.088
  -1.437        -20.089
  -1.435        -20.090
  -1.432        -20.092
  -1.430        -20.093
  -1.428        -20.095
  -1.426        -20.096
  -1.424        -20.097
  -1.422        -20.099
  -1.419        -20.101
  -1.417        -20.102
  -1.415        -20.103
  -1.413        -20.105
  -1.411        -20.107
  -1.409        -20.108
  -1.406        -20.109
  -1.404        -20.111
  -1.402        -20.113
  -1.400        -20.114
  -1.398        -20.116
  -1.396        -20.117
  -1.393        -20.119
  -1.391        -20.120
  -1.389        -20.122
  -1.387        -20.123
  -1.385        -20.125
  -1.383        -20.127
  -1.380        -20.128
  -1.378        -20.130
  -1.376        -20.131
  -1.374        -20.133
  -1.372        -20.134
  -1.370        -20.136
  -1.367        -20.138
  -1.365        -20.139
  -1.363        -20.141
  -1.361        -20.143
  -1.359        -20.144
  -1.356        -20.146
  -1.354        -20.147
  -1.352        -20.149
  -1.350        -20.151
  -1.348        -20.152
  -1.346        -20.154
  -1.343        -20.156
  -1.341        -20.157
  -1.339        -20.159
  -1.337        -20.160
  -1.335        -20.162
  -1.333        -20.164
  -1.330        -20.165
  -1.328        -20.167
  -1.326        -20.169
  -1.324        -20.170
  -1.322        -20.172
  -1.320        -20.174
  -1.317        -20.175
  -1.315        -20.177
  -1.313        -20.178
  -1.311        -20.180
  -1.309        -20.182
  -1.307        -20.183
  -1.304        -20.185
  -1.302        -20.186
  -1.300        -20.188
  -1.298        -20.190
  -1.296        -20.191
  -1.293        -20.193
  -1.291        -20.194
  -1.289        -20.196
  -1.287        -20.198
  -1.285        -20.199
  -1.283        -20.201
  -1.280        -20.202
  -1.278        -20.204
  -1.276        -20.206
  -1.274        -20.207
  -1.272        -20.209
  -1.270        -20.210
  -1.267        -20.212
  -1.265        -20.213
  -1.263        -20.215
  -1.261        -20.216
  -1.259        -20.218
  -1.257        -20.219
  -1.254        -20.221
  -1.252        -20.222
  -1.250        -20.224
  -1.248        -20.225
  -1.246        -20.227
  -1.243        -20.228
  -1.241        -20.230
  -1.239        -20.231
  -1.237        -20.233
  -1.235        -20.234
  -1.233        -20.235
  -1.231        -20.237
  -1.228        -20.239
  -1.226        -20.240
  -1.224        -20.241
  -1.222        -20.243
  -1.220        -20.244
  -1.217        -20.246
  -1.215        -20.247
  -1.213        -20.248
  -1.211        -20.250
  -1.209        -20.251
  -1.207        -20.252
  -1.204        -20.253
  -1.202        -20.255
  -1.200        -20.256
  -1.198        -20.257
  -1.196        -20.259
  -1.194        -20.260
  -1.191        -20.261
  -1.189        -20.262
  -1.187        -20.263
  -1.185        -20.265
  -1.183        -20.266
  -1.181        -20.267
  -1.178        -20.268
  -1.176        -20.270
  -1.174        -20.271
  -1.172        -20.272
  -1.170        -20.273
  -1.168        -20.274
  -1.165        -20.275
  -1.163        -20.277
  -1.161        -20.277
  -1.159        -20.279
  -1.157        -20.280
  -1.155        -20.281
  -1.152        -20.282
  -1.150        -20.283
  -1.148        -20.284
  -1.146        -20.285
  -1.144        -20.286
  -1.142        -20.287
  -1.139        -20.288
  -1.137        -20.289
  -1.135        -20.290
  -1.133        -20.291
  -1.131        -20.292
  -1.129        -20.293
  -1.126        -20.293
  -1.124        -20.294
  -1.122        -20.296
  -1.120        -20.296
  -1.118        -20.297
  -1.115        -20.298
  -1.113        -20.299
  -1.111        -20.300
  -1.109        -20.300
  -1.107        -20.301
  -1.105        -20.302
  -1.102        -20.303
  -1.100        -20.304
  -1.098        -20.305
  -1.096        -20.305
  -1.094        -20.306
  -1.092        -20.307
  -1.089        -20.307
  -1.087        -20.308
  -1.085        -20.309
  -1.083        -20.310
  -1.081        -20.310
  -1.079        -20.311
  -1.076        -20.311
  -1.074        -20.312
  -1.072        -20.313
  -1.070        -20.313
  -1.068        -20.314
  -1.066        -20.314
  -1.063        -20.315
  -1.061        -20.315
  -1.059        -20.316
  -1.057        -20.317
  -1.055        -20.317
  -1.052        -20.318
  -1.050        -20.318
  -1.048        -20.319
  -1.046        -20.319
  -1.044        -20.319
  -1.042        -20.319
  -1.039        -20.320
  -1.037        -20.321
  -1.035        -20.321
  -1.033        -20.321
  -1.031        -20.322
  -1.029        -20.322
  -1.026        -20.322
  -1.024        -20.322
  -1.022        -20.323
  -1.020        -20.323
  -1.018        -20.323
  -1.016        -20.323
  -1.013        -20.324
  -1.011        -20.324
  -1.009        -20.324
  -1.007        -20.324
  -1.005        -20.324
  -1.003        -20.324
  -1.000        -20.325
  -0.998        -20.325
  -0.996        -20.325
  -0.994        -20.325
  -0.992        -20.325
  -0.990        -20.325
  -0.987        -20.325
  -0.985        -20.325
  -0.983        -20.325
  -0.981        -20.325
  -0.979        -20.325
  -0.977        -20.325
  -0.974        -20.325
  -0.972        -20.325
  -0.970        -20.325
  -0.968        -20.325
  -0.966        -20.325
  -0.963        -20.325
  -0.961        -20.324
  -0.959        -20.324
  -0.957        -20.324
  -0.955        -20.324
  -0.953        -20.324
  -0.950        -20.324
  -0.948        -20.323
  -0.946        -20.323
  -0.944        -20.323
  -0.942        -20.322
  -0.940        -20.322
  -0.937        -20.322
  -0.935        -20.322
  -0.933        -20.321
  -0.931        -20.321
  -0.929        -20.321
  -0.927        -20.320
  -0.924        -20.320
  -0.922        -20.319
  -0.920        -20.319
  -0.918        -20.319
  -0.916        -20.318
  -0.914        -20.318
  -0.911        -20.317
  -0.909        -20.317
  -0.907        -20.316
  -0.905        -20.316
  -0.903        -20.315
  -0.900        -20.315
  -0.898        -20.314
  -0.896        -20.314
  -0.894        -20.313
  -0.892        -20.313
  -0.890        -20.312
  -0.887        -20.311
  -0.885        -20.311
  -0.883        -20.310
  -0.881        -20.310
  -0.879        -20.309
  -0.877        -20.308
  -0.874        -20.308
  -0.872        -20.307
  -0.870        -20.306
  -0.868        -20.306
  -0.866        -20.305
  -0.864        -20.304
  -0.862        -20.303
  -0.859        -20.303
  -0.857        -20.302
  -0.855        -20.301
  -0.853        -20.301
  -0.851        -20.300
  -0.848        -20.299
  -0.846        -20.298
  -0.844        -20.298
  -0.842        -20.297
  -0.840        -20.296
  -0.838        -20.295
  -0.835        -20.294
  -0.833        -20.293
  -0.831        -20.293
  -0.829        -20.292
  -0.827        -20.291
  -0.825        -20.290
  -0.822        -20.289
  -0.820        -20.288
  -0.818        -20.287
  -0.816        -20.286
  -0.814        -20.285
  -0.812        -20.285
  -0.809        -20.284
  -0.807        -20.283
  -0.805        -20.282
  -0.803        -20.281
  -0.801        -20.280
  -0.799        -20.279
  -0.796        -20.278
  -0.794        -20.277
  -0.792        -20.276
  -0.790        -20.275
  -0.788        -20.274
  -0.785        -20.273
  -0.783        -20.272
  -0.781        -20.271
  -0.779        -20.270
  -0.777        -20.269
  -0.774        -20.268
  -0.772        -20.267
  -0.770        -20.266
  -0.768        -20.265
  -0.766        -20.264
  -0.764        -20.263
  -0.762        -20.262
  -0.759        -20.261
  -0.757        -20.260
  -0.755        -20.258
  -0.753        -20.258
  -0.751        -20.256
  -0.748        -20.255
  -0.746        -20.254
  -0.744        -20.253
  -0.742        -20.252
  -0.740        -20.251
  -0.738        -20.250
  -0.736        -20.249
  -0.733        -20.247
  -0.731        -20.247
  -0.729        -20.245
  -0.727        -20.244
  -0.725        -20.243
  -0.723        -20.242
  -0.720        -20.241
  -0.718        -20.240
  -0.716        -20.238
  -0.714        -20.237
  -0.712        -20.236
  -0.709        -20.235
  -0.707        -20.234
  -0.705        -20.233
  -0.703        -20.232
  -0.701        -20.230
  -0.699        -20.229
  -0.697        -20.228
  -0.694        -20.227
  -0.692        -20.226
  -0.690        -20.225
  -0.688        -20.224
  -0.685        -20.222
  -0.683        -20.221
  -0.681        -20.220
  -0.679        -20.219
  -0.677        -20.218
  -0.675        -20.216
  -0.673        -20.215
  -0.670        -20.214
  -0.668        -20.213
  -0.666        -20.212
  -0.664        -20.211
  -0.662        -20.209
  -0.659        -20.208
  -0.657        -20.207
  -0.655        -20.206
  -0.653        -20.205
  -0.651        -20.204
  -0.649        -20.202
  -0.647        -20.201
  -0.644        -20.200
  -0.642        -20.199
  -0.640        -20.198
  -0.638        -20.197
  -0.636        -20.195
  -0.633        -20.194
  -0.631        -20.193
  -0.629        -20.192
  -0.627        -20.191
  -0.625        -20.190
  -0.623        -20.188
  -0.621        -20.187
  -0.618        -20.186
  -0.616        -20.185
  -0.614        -20.184
  -0.612        -20.183
  -0.610        -20.181
  -0.608        -20.180
  -0.605        -20.179
  -0.603        -20.178
  -0.601        -20.177
  -0.599        -20.176
  -0.596        -20.175
  -0.594        -20.173
  -0.592        -20.172
  -0.590        -20.171
  -0.588        -20.170
  -0.586        -20.169
  -0.584        -20.168
  -0.581        -20.167
  -0.579        -20.166
  -0.577        -20.164
  -0.575        -20.163
  -0.573        -20.162
  -0.571        -20.161
  -0.568        -20.160
  -0.566        -20.159
  -0.564        -20.158
  -0.562        -20.157
  -0.560        -20.156
  -0.557        -20.155
  -0.555        -20.154
  -0.553        -20.153
  -0.551        -20.152
  -0.549        -20.151
  -0.547        -20.150
  -0.544        -20.149
  -0.542        -20.148
  -0.540        -20.147
  -0.538        -20.146
  -0.536        -20.145
  -0.534        -20.144
  -0.531        -20.143
  -0.529        -20.142
  -0.527        -20.141
  -0.525        -20.140
  -0.523        -20.139
  -0.521        -20.138
  -0.518        -20.138
  -0.516        -20.137
  -0.514        -20.136
  -0.512        -20.135
  -0.510        -20.134
  -0.507        -20.133
  -0.505        -20.133
  -0.503        -20.132
  -0.501        -20.131
  -0.499        -20.130
  -0.497        -20.129
  -0.495        -20.129
  -0.492        -20.128
  -0.490        -20.127
  -0.488        -20.126
  -0.486        -20.126
  -0.484        -20.125
  -0.482        -20.124
  -0.479        -20.123
  -0.477        -20.123
  -0.475        -20.122
  -0.473        -20.121
  -0.471        -20.121
  -0.468        -20.120
  -0.466        -20.119
  -0.464        -20.119
  -0.462        -20.118
  -0.460        -20.117
  -0.458        -20.117
  -0.455        -20.116
  -0.453        -20.115
  -0.451        -20.115
  -0.449        -20.114
  -0.447        -20.114
  -0.445        -20.113
  -0.442        -20.112
  -0.440        -20.112
  -0.438        -20.111
  -0.436        -20.111
  -0.434        -20.110
  -0.432        -20.110
  -0.429        -20.109
  -0.427        -20.108
  -0.425        -20.108
  -0.423        -20.107
  -0.421        -20.107
  -0.419        -20.106
  -0.416        -20.106
  -0.414        -20.105
  -0.412        -20.105
  -0.410        -20.104
  -0.408        -20.104
  -0.405        -20.103
  -0.403        -20.103
  -0.401        -20.102
  -0.399        -20.102
  -0.397        -20.102
  -0.395        -20.101
  -0.392        -20.101
  -0.390        -20.100
  -0.388        -20.100
  -0.386        -20.099
  -0.384        -20.099
  -0.382        -20.098
  -0.379        -20.098
  -0.377        -20.098
  -0.375        -20.097
  -0.373        -20.097
  -0.371        -20.097
  -0.369        -20.096
  -0.366        -20.096
  -0.364        -20.096
  -0.362        -20.095
  -0.360        -20.095
  -0.358        -20.094
  -0.356        -20.094
  -0.353        -20.094
  -0.351        -20.094
  -0.349        -20.093
  -0.347        -20.093
  -0.345        -20.093
  -0.343        -20.092
  -0.340        -20.092
  -0.338        -20.091
  -0.336        -20.091
  -0.334        -20.091
  -0.332        -20.091
  -0.330        -20.091
  -0.327        -20.090
  -0.325        -20.090
  -0.323        -20.090
  -0.321        -20.089
  -0.319        -20.089
  -0.316        -20.089
  -0.314        -20.089
  -0.312        -20.088
  -0.310        -20.088
  -0.308        -20.088
  -0.306        -20.088
  -0.303        -20.088
  -0.301        -20.087
  -0.299        -20.087
  -0.297        -20.087
  -0.295        -20.087
  -0.293        -20.087
  -0.290        -20.087
  -0.288        -20.087
  -0.286        -20.087
  -0.284        -20.087
  -0.282        -20.086
  -0.280        -20.086
  -0.277        -20.086
  -0.275        -20.086
  -0.273        -20.086
  -0.271        -20.086
  -0.269        -20.086
  -0.267        -20.086
  -0.264        -20.086
  -0.262        -20.086
  -0.260        -20.086
  -0.258        -20.086
  -0.256        -20.086
  -0.253        -20.086
  -0.251        -20.086
  -0.249        -20.086
  -0.247        -20.086
  -0.245        -20.086
  -0.243        -20.086
  -0.241        -20.086
  -0.238        -20.086
  -0.236        -20.086
  -0.234        -20.086
  -0.232        -20.087
  -0.230        -20.087
  -0.227        -20.087
  -0.225        -20.087
  -0.223        -20.087
  -0.221        -20.087
  -0.219        -20.087
  -0.217        -20.087
  -0.214        -20.087
  -0.212        -20.087
  -0.210        -20.088
  -0.208        -20.088
  -0.206        -20.088
  -0.204        -20.088
  -0.201        -20.088
  -0.199        -20.088
  -0.197        -20.089
  -0.195        -20.089
  -0.193        -20.089
  -0.191        -20.089
  -0.188        -20.089
  -0.186        -20.090
  -0.184        -20.090
  -0.182        -20.090
  -0.180        -20.090
  -0.178        -20.090
  -0.175        -20.091
  -0.173        -20.091
  -0.171        -20.091
  -0.169        -20.091
  -0.167        -20.092
  -0.164        -20.092
  -0.162        -20.092
  -0.160        -20.093
  -0.158        -20.093
  -0.156        -20.093
  -0.154        -20.093
  -0.151        -20.094
  -0.149        -20.094
  -0.147        -20.094
  -0.145        -20.095
  -0.143        -20.095
  -0.141        -20.095
  -0.138        -20.096
  -0.136        -20.096
  -0.134        -20.096
  -0.132        -20.097
  -0.130        -20.097
  -0.128        -20.097
  -0.125        -20.098
  -0.123        -20.098
  -0.121        -20.098
  -0.119        -20.099
  -0.117        -20.099
  -0.115        -20.099
  -0.112        -20.100
  -0.110        -20.100
  -0.108        -20.100
  -0.106        -20.101
  -0.104        -20.101
  -0.102        -20.101
  -0.099        -20.102
  -0.097        -20.102
  -0.095        -20.102
  -0.093        -20.102
  -0.091        -20.103
  -0.089        -20.103
  -0.086        -20.103
  -0.084        -20.104
  -0.082        -20.104
  -0.080        -20.104
  -0.078        -20.105
  -0.075        -20.105
  -0.073        -20.105
  -0.071        -20.106
  -0.069        -20.106
  -0.067        -20.106
  -0.065        -20.107
  -0.063        -20.107
  -0.060        -20.107
  -0.058        -20.107
  -0.056        -20.108
  -0.054        -20.108
  -0.052        -20.109
  -0.049        -20.109
  -0.047        -20.109
  -0.045        -20.110
  -0.043        -20.110
  -0.041        -20.110
  -0.039        -20.111
  -0.036        -20.111
  -0.034        -20.112
  -0.032        -20.112
  -0.030        -20.112
  -0.028        -20.113
  -0.026        -20.113
  -0.023        -20.114
  -0.021        -20.114
  -0.019        -20.115
  -0.017        -20.115
  -0.015        -20.115
  -0.013        -20.116
  -0.010        -20.116
  -0.008        -20.117
  -0.006        -20.117
  -0.004        -20.117
  -0.002        -20.118
   0.000        -20.118
   0.003        -20.119
   0.005        -20.119
   0.007        -20.120
   0.009        -20.120
   0.011        -20.120
   0.013        -20.121
   0.016        -20.121
   0.018        -20.122
   0.020        -20.122
   0.022        -20.123
   0.024        -20.123
   0.027        -20.123
   0.029        -20.124
   0.031        -20.124
   0.033        -20.125
   0.035        -20.125
   0.037        -20.126
   0.040        -20.126
   0.042        -20.127
   0.044        -20.127
   0.046        -20.128
   0.048        -20.128
   0.050        -20.129
   0.053        -20.129
   0.055        -20.130
   0.057        -20.130
   0.059        -20.131
   0.061        -20.131
   0.063        -20.132
   0.066        -20.133
   0.068        -20.133
   0.070        -20.134
   0.072        -20.134
   0.074        -20.135
   0.076        -20.136
   0.079        -20.136
   0.081        -20.137
   0.083        -20.138
   0.085        -20.138
   0.087        -20.139
   0.089        -20.139
   0.092        -20.140
   0.094        -20.141
   0.096        -20.142
   0.098        -20.142
   0.100        -20.143
   0.103        -20.144
   0.105        -20.145
   0.107        -20.145
   0.109        -20.146
   0.111        -20.147
   0.113        -20.148
   0.116        -20.149
   0.118        -20.149
   0.120        -20.150
   0.122        -20.151
   0.124        -20.152
   0.126        -20.152
   0.128        -20.153
   0.131        -20.154
   0.133        -20.155
   0.135        -20.156
   0.137        -20.156
   0.139        -20.157
   0.142        -20.158
   0.144        -20.159
   0.146        -20.159
   0.148        -20.161
   0.150        -20.161
   0.153        -20.162
   0.155        -20.163
   0.157        -20.164
   0.159        -20.165
   0.161        -20.166
   0.163        -20.166
   0.165        -20.167
   0.168        -20.168
   0.170        -20.169
   0.172        -20.170
   0.174        -20.171
   0.176        -20.171
   0.178        -20.172
   0.181        -20.173
   0.183        -20.174
   0.185        -20.175
   0.187        -20.176
   0.189        -20.177
   0.192        -20.178
   0.194        -20.179
   0.196        -20.180
   0.198        -20.181
   0.200        -20.181
   0.202        -20.182
   0.205        -20.183
   0.207        -20.184
   0.209        -20.185
   0.211        -20.186
   0.213        -20.187
   0.215        -20.188
   0.218        -20.189
   0.220        -20.190
   0.222        -20.190
   0.224        -20.191
   0.226        -20.192
   0.229        -20.193
   0.231        -20.194
   0.233        -20.195
   0.235        -20.196
   0.237        -20.197
   0.239        -20.198
   0.241        -20.199
   0.244        -20.200
   0.246        -20.201
   0.248        -20.202
   0.250        -20.202
   0.252        -20.203
   0.254        -20.204
   0.257        -20.205
   0.259        -20.206
   0.261        -20.207
   0.263        -20.208
   0.265        -20.209
   0.267        -20.210
   0.270        -20.211
   0.272        -20.212
   0.274        -20.213
   0.276        -20.214
   0.278        -20.215
   0.281        -20.216
   0.283        -20.217
   0.285        -20.217
   0.287        -20.219
   0.289        -20.219
   0.291        -20.221
   0.293        -20.221
   0.296        -20.222
   0.298        -20.223
   0.300        -20.224
   0.302        -20.225
   0.305        -20.226
   0.307        -20.227
   0.309        -20.228
   0.311        -20.229
   0.313        -20.230
   0.315        -20.231
   0.318        -20.232
   0.320        -20.233
   0.322        -20.234
   0.324        -20.235
   0.326        -20.236
   0.328        -20.237
   0.330        -20.238
   0.333        -20.239
   0.335        -20.240
   0.337        -20.241
   0.339        -20.242
   0.341        -20.243
   0.344        -20.244
   0.346        -20.245
   0.348        -20.246
   0.350        -20.247
   0.352        -20.248
   0.354        -20.248
   0.356        -20.249
   0.359        -20.251
   0.361        -20.252
   0.363        -20.253
   0.365        -20.253
   0.367        -20.254
   0.369        -20.255
   0.372        -20.256
   0.374        -20.257
   0.376        -20.258
   0.378        -20.259
   0.380        -20.260
   0.383        -20.261
   0.385        -20.262
   0.387        -20.263
   0.389        -20.264
   0.391        -20.265
   0.393        -20.266
   0.396        -20.267
   0.398        -20.268
   0.400        -20.269
   0.402        -20.270
   0.404        -20.271
   0.406        -20.273
   0.409        -20.274
   0.411        -20.275
   0.413        -20.276
   0.415        -20.277
   0.417        -20.278
   0.420        -20.279
   0.422        -20.280
   0.424        -20.281
   0.426        -20.282
   0.428        -20.284
   0.430        -20.285
   0.432        -20.286
   0.435        -20.287
   0.437        -20.288
   0.439        -20.289
   0.441        -20.290
   0.443        -20.292
   0.446        -20.293
   0.448        -20.294
   0.450        -20.295
   0.452        -20.296
   0.454        -20.298
   0.456        -20.299
   0.459        -20.300
   0.461        -20.301
   0.463        -20.303
   0.465        -20.304
   0.467        -20.305
   0.469        -20.306
   0.472        -20.308
   0.474        -20.309
   0.476        -20.310
   0.478        -20.311
   0.480        -20.313
   0.482        -20.314
   0.485        -20.315
   0.487        -20.316
   0.489        -20.317
   0.491        -20.318
   0.493        -20.319
   0.495        -20.320
   0.498        -20.321
   0.500        -20.322
   0.502        -20.323
   0.504        -20.324
   0.506        -20.325
   0.510        -20.327
   0.512        -20.328
   0.513        -20.328
   0.515        -20.329
   0.517        -20.330
   0.519        -20.331
   0.522        -20.332
   0.524        -20.333
   0.526        -20.334
   0.528        -20.334
   0.530        -20.335
   0.532        -20.336
   0.535        -20.337
   0.537        -20.338
   0.539        -20.339
   0.541        -20.340
   0.543        -20.341
   0.545        -20.342
   0.548        -20.343
   0.550        -20.344
   0.552        -20.345
   0.554        -20.346
   0.556        -20.348
   0.558        -20.349
   0.561        -20.350
   0.563        -20.351
   0.565        -20.352
   0.567        -20.353
   0.569        -20.355
   0.572        -20.356
   0.574        -20.357
   0.576        -20.358
   0.578        -20.360
   0.580        -20.361
   0.582        -20.362
   0.585        -20.364
   0.587        -20.365
   0.589        -20.366
   0.591        -20.368
   0.593        -20.369
   0.595        -20.371
   0.598        -20.372
   0.600        -20.373
   0.602        -20.375
   0.604        -20.377
   0.606        -20.378
   0.608        -20.379
   0.611        -20.381
   0.613        -20.382
   0.615        -20.384
   0.617        -20.386
   0.619        -20.387
   0.621        -20.389
   0.624        -20.391
   0.626        -20.392
   0.628        -20.394
   0.630        -20.396
   0.632        -20.397
   0.634        -20.399
   0.637        -20.401
   0.639        -20.403
   0.641        -20.405
   0.643        -20.407
   0.645        -20.408
   0.647        -20.410
   0.650        -20.412
   0.652        -20.414
   0.654        -20.416
   0.656        -20.418
   0.658        -20.420
   0.660        -20.422
   0.663        -20.424
   0.665        -20.426
   0.667        -20.428
   0.669        -20.431
   0.671        -20.433
   0.673        -20.435
   0.676        -20.437
   0.678        -20.439
   0.680        -20.441
   0.682        -20.444
   0.684        -20.446
   0.687        -20.449
   0.689        -20.451
   0.691        -20.453
   0.693        -20.456
   0.695        -20.458
   0.697        -20.460
   0.700        -20.463
   0.702        -20.466
   0.704        -20.468
   0.706        -20.471
   0.708        -20.474
   0.710        -20.476
   0.713        -20.479
   0.715        -20.482
   0.717        -20.484
   0.719        -20.487
   0.721        -20.490
   0.723        -20.493
   0.726        -20.496
   0.728        -20.499
   0.730        -20.502
   0.732        -20.505
   0.734        -20.508
   0.736        -20.511
   0.739        -20.514
   0.741        -20.518
   0.743        -20.521
   0.745        -20.524
   0.747        -20.527
   0.750        -20.531
   0.752        -20.534
   0.754        -20.537
   0.756        -20.540
   0.758        -20.544
   0.760        -20.547
   0.762        -20.551
   0.765        -20.554
   0.767        -20.558
   0.769        -20.561
   0.771        -20.565
   0.773        -20.569
   0.776        -20.572
   0.778        -20.576
   0.780        -20.579
   0.782        -20.583
   0.784        -20.587
   0.786        -20.591
   0.789        -20.595
   0.791        -20.599
   0.793        -20.603
   0.795        -20.607
   0.797        -20.611
   0.799        -20.615
   0.802        -20.619
   0.804        -20.624
   0.806        -20.628
   0.808        -20.632
   0.810        -20.637
   0.812        -20.641
   0.815        -20.646
   0.817        -20.650
   0.819        -20.654
   0.821        -20.659
   0.823        -20.663
   0.825        -20.668
   0.828        -20.673
   0.830        -20.678
   0.832        -20.683
   0.834        -20.687
   0.836        -20.692
   0.838        -20.697
   0.841        -20.701
   0.843        -20.706
   0.845        -20.711
   0.847        -20.716
   0.849        -20.721
   0.852        -20.727
   0.854        -20.732
   0.856        -20.737
   0.858        -20.742
   0.860        -20.747
   0.862        -20.752
   0.865        -20.757
   0.867        -20.763
   0.869        -20.768
   0.871        -20.773
   0.873        -20.779
   0.875        -20.784
   0.878        -20.790
   0.880        -20.795
   0.882        -20.801
   0.884        -20.806
   0.886        -20.812
   0.888        -20.818
   0.891        -20.824
   0.893        -20.830
   0.895        -20.836
   0.897        -20.842
   0.899        -20.848
   0.901        -20.854
   0.904        -20.859
   0.906        -20.866
   0.908        -20.872
   0.910        -20.879
   0.912        -20.885
   0.915        -20.892
   0.917        -20.899
   0.919        -20.905
   0.921        -20.912
   0.923        -20.918
   0.925        -20.925
   0.928        -20.932
   0.930        -20.939
   0.932        -20.946
   0.934        -20.954
   0.936        -20.961
   0.938        -20.969
   0.941        -20.976
   0.943        -20.983
   0.945        -20.990
   0.947        -20.998
   0.949        -21.007
   0.951        -21.015
   0.954        -21.024
   0.956        -21.033
   0.958        -21.041
   0.960        -21.050
   0.962        -21.059
   0.964        -21.068
   0.967        -21.077
   0.969        -21.085
   0.971        -21.093
   0.973        -21.101
   0.975        -21.109
   0.977        -21.117
   0.980        -21.125
   0.982        -21.133
   0.984        -21.141
   0.986        -21.149
   0.988        -21.157
   0.990        -21.166
   0.993        -21.174
   0.995        -21.183
   0.997        -21.192
   0.999        -21.201
   1.001        -21.210
   1.004        -21.218
   1.006        -21.227
   1.008        -21.236
   1.010        -21.246
   1.012        -21.259
   1.014        -21.272
   1.017        -21.285
   1.019        -21.299
   1.021        -21.312
   1.023        -21.325
   1.025        -21.338
   1.027        -21.352
   1.030        -21.365
   1.032        -21.381
   1.034        -21.399
   1.036        -21.416
   1.038        -21.433
   1.040        -21.451
   1.043        -21.468
   1.045        -21.486
   1.047        -21.503
   1.049        -21.521
   1.051        -21.540
   1.053        -21.564
   1.056        -21.589
   1.058        -21.615
   1.060        -21.640
   1.062        -21.665
   1.064        -21.691
   1.066        -21.716
   1.069        -21.741
   1.071        -21.767
   1.073        -21.801
   1.075        -21.843
   1.077        -21.886
   1.079        -21.928
   1.082        -21.970
   1.084        -22.013
   1.086        -22.055
   1.088        -22.097
   1.090        -22.140
   1.093        -22.181
   1.095        -22.207
   1.097        -22.230
   1.099        -22.252
   1.101        -22.275
   1.103        -22.297
   1.106        -22.320
   1.108        -22.342
   1.110        -22.365
   1.112        -22.390
   1.114        -22.405
   1.117        -22.408
   1.119        -22.411
   1.121        -22.415
   1.123        -22.418
   1.125        -22.421
   1.127        -22.424
   1.129        -22.428
   1.131        -22.431
   1.134        -22.435
   1.136        -22.438
   1.138        -22.441
   1.140        -22.445
   1.143        -22.448
   1.145        -22.452
   1.147        -22.455
   1.149        -22.458
   1.151        -22.462
   1.153        -22.465
   1.155        -22.469
   1.158        -22.473
   1.160        -22.476
   1.162        -22.480
   1.164        -22.484
   1.166        -22.487
   1.169        -22.491
   1.171        -22.495
   1.173        -22.498
   1.175        -22.502
   1.177        -22.506
   1.180        -22.510
   1.181        -22.513
   1.184        -22.517
   1.186        -22.521
   1.188        -22.525
   1.190        -22.529
   1.192        -22.533
   1.195        -22.537
   1.197        -22.541
   1.199        -22.545
   1.201        -22.550
   1.203        -22.554
   1.205        -22.558
   1.208        -22.562
   1.210        -22.566
   1.212        -22.570
   1.214        -22.574
   1.216        -22.578
   1.218        -22.582
   1.220        -22.587
   1.223        -22.592
   1.225        -22.596
   1.227        -22.601
   1.229        -22.605
   1.232        -22.609
   1.234        -22.614
   1.236        -22.618
   1.238        -22.623
   1.240        -22.627
   1.242        -22.632
   1.245        -22.637
   1.247        -22.641
   1.249        -22.645
   1.251        -22.650
   1.253        -22.655
   1.255        -22.660
   1.258        -22.664
   1.260        -22.669
   1.262        -22.674
   1.264        -22.679
   1.266        -22.684
   1.268        -22.689
   1.270        -22.694
   1.273        -22.700
   1.275        -22.705
   1.277        -22.710
   1.279        -22.715
   1.281        -22.720
   1.284        -22.726
   1.286        -22.731
   1.288        -22.736
   1.290        -22.742
   1.292        -22.747
   1.294        -22.753
   1.297        -22.758
   1.299        -22.763
   1.301        -22.769
   1.303        -22.775
   1.305        -22.781
   1.307        -22.787
   1.310        -22.792
   1.312        -22.798
   1.314        -22.804
   1.316        -22.810
   1.318        -22.816
   1.320        -22.821
   1.323        -22.827
   1.325        -22.834
   1.327        -22.840
   1.329        -22.846
   1.331        -22.852
   1.334        -22.858
   1.336        -22.864
   1.338        -22.870
   1.340        -22.876
   1.342        -22.882
   1.344        -22.889
   1.346        -22.895
   1.349        -22.902
   1.351        -22.909
   1.353        -22.915
   1.355        -22.922
   1.357        -22.928
   1.359        -22.935
   1.362        -22.941
   1.364        -22.948
   1.366        -22.955
   1.368        -22.961
   1.370        -22.968
   1.373        -22.974
   1.375        -22.981
   1.377        -22.988
   1.379        -22.994
   1.381        -23.001
   1.383        -23.007
   1.386        -23.014
   1.388        -23.021
   1.390        -23.027
   1.392        -23.033
   1.394        -23.040
   1.397        -23.047
   1.399        -23.053
   1.401        -23.060
   1.403        -23.066
   1.405        -23.073
   1.407        -23.080
   1.410        -23.087
   1.412        -23.094
   1.414        -23.101
   1.416        -23.108
   1.418        -23.115
   1.420        -23.122
   1.423        -23.129
   1.425        -23.136
   1.427        -23.144
   1.429        -23.151
   1.431        -23.158
   1.433        -23.166
   1.436        -23.173
   1.438        -23.181
   1.440        -23.188
   1.442        -23.196
   1.444        -23.203
   1.446        -23.210
   1.449        -23.218
   1.451        -23.226
   1.453        -23.234
   1.455        -23.242
   1.457        -23.250
   1.460        -23.257
   1.462        -23.265
   1.464        -23.273
   1.466        -23.281
   1.468        -23.289
   1.470        -23.297
   1.472        -23.305
   1.475        -23.313
   1.477        -23.321
   1.479        -23.329
   1.481        -23.337
   1.483        -23.345
   1.486        -23.353
   1.488        -23.362
   1.490        -23.370
   1.492        -23.378
   1.494        -23.386
   1.496        -23.395
   1.498        -23.403
   1.501        -23.411
   1.503        -23.420
   1.505        -23.428
   1.507        -23.436
   1.509        -23.445
   1.512        -23.453
   1.514        -23.461
   1.516        -23.470
   1.518        -23.478
   1.520        -23.487
   1.522        -23.495
   1.525        -23.503
   1.527        -23.512
   1.529        -23.520
   1.531        -23.529
   1.533        -23.537
   1.535        -23.545
   1.538        -23.554
   1.540        -23.562
   1.542        -23.571
   1.544        -23.579
   1.546        -23.588
   1.549        -23.596
   1.551        -23.605
   1.553        -23.613
   1.555        -23.622
   1.557        -23.631
   1.559        -23.639
   1.561        -23.648
   1.564        -23.657
   1.566        -23.665
   1.568        -23.674
   1.570        -23.682
   1.572        -23.692
   1.575        -23.701
   1.577        -23.710
   1.579        -23.720
   1.581        -23.729
   1.583        -23.738
   1.585        -23.747
   1.588        -23.756
   1.590        -23.784
   1.592        -23.829
   1.594        -23.838
   1.596        -23.847
   1.598        -23.856
   1.601        -23.865
   1.603        -23.874
   1.605        -23.883
   1.607        -23.893
   1.609        -23.902
   1.611        -23.911
   1.614        -23.920
   1.616        -23.930
   1.618        -23.939
   1.620        -23.949
   1.622        -23.958
   1.624        -23.968
   1.627        -23.977
   1.629        -23.987
   1.631        -23.996
   1.633        -24.006
   1.635        -24.015
   1.637        -24.025
   1.640        -24.034
   1.642        -24.044
   1.644        -24.053
   1.646        -24.063
   1.648        -24.072
   1.651        -24.082
   1.653        -24.091
   1.655        -24.100
   1.657        -24.109
   1.659        -24.119
   1.661        -24.128
   1.664        -24.137
   1.666        -24.147
   1.668        -24.156
   1.670        -24.165
   1.672        -24.174
   1.674        -24.183
   1.676        -24.192
   1.679        -24.201
   1.681        -24.210
   1.683        -24.219
   1.685        -24.228
   1.687        -24.237
   1.690        -24.246
   1.692        -24.255
   1.694        -24.265
   1.696        -24.274
   1.699        -24.285
   1.701        -24.295
   1.703        -24.304
   1.705        -24.313
   1.707        -24.323
   1.709        -24.333
   1.711        -24.342
   1.714        -24.353
   1.716        -24.359
   1.718        -24.370
   1.720        -24.383
   1.722        -24.397
   1.724        -24.412
   1.727        -24.426
   1.729        -24.441
   1.731        -24.455
   1.733        -24.470
   1.735        -24.484
   1.737        -24.496
   1.739        -24.502
   1.742        -24.508
   1.744        -24.514
   1.746        -24.520
   1.748        -24.526
   1.750        -24.532
   1.753        -24.538
   1.755        -24.545
   1.757        -24.551
   1.759        -24.553
   1.761        -24.556
   1.763        -24.558
   1.766        -24.560
   1.768        -24.562
   1.770        -24.564
   1.772        -24.566
   1.774        -24.568
   1.776        -24.570
   1.779        -24.572
   1.781        -24.573
   1.783        -24.574
   1.785        -24.574
   1.787        -24.575
   1.789        -24.576
   1.792        -24.577
   1.794        -24.577
   1.796        -24.578
   1.798        -24.579
   1.800        -24.579
   1.802        -24.580
   1.805        -24.580
   1.807        -24.580
   1.809        -24.581
   1.811        -24.581
   1.813        -24.581
   1.816        -24.582
   1.818        -24.582
   1.820        -24.582
   1.822        -24.582
   1.824        -24.582
   1.826        -24.583
   1.829        -24.583
   1.831        -24.583
   1.833        -24.583
   1.835        -24.583
   1.837        -24.583
   1.839        -24.584
   1.842        -24.584
   1.844        -24.584
   1.846        -24.584
   1.848        -24.584
   1.850        -24.584
   1.852        -24.584
   1.855        -24.584
   1.857        -24.585
   1.859        -24.585
   1.861        -24.585
   1.863        -24.585
   1.865        -24.585
   1.868        -24.585
   1.870        -24.585
   1.872        -24.585
   1.874        -24.585
   1.876        -24.585
   1.878        -24.585
   1.881        -24.585
   1.883        -24.585
   1.885        -24.585
   1.887        -24.585
   1.889        -24.585
   1.891        -24.585
   1.894        -24.585
   1.896        -24.586
   1.898        -24.586
   1.900        -24.586
   1.902        -24.586
   1.905        -24.586
   1.907        -24.586
   1.909        -24.586
   1.911        -24.586
   1.913        -24.586
   1.915        -24.585
   1.918        -24.585
   1.920        -24.585
   1.922        -24.585
   1.924        -24.585
   1.926        -24.585
   1.928        -24.585
   1.931        -24.585
   1.933        -24.585
   1.935        -24.585
   1.937        -24.585
   1.939        -24.585
   1.941        -24.585
   1.944        -24.585
   1.946        -24.585
   1.948        -24.585
   1.950        -24.585
   1.952        -24.584
   1.954        -24.584
   1.957        -24.584
   1.959        -24.584
   1.961        -24.584
   1.963        -24.584
   1.965        -24.584
   1.967        -24.584
   1.970        -24.583
   1.972        -24.583
   1.974        -24.583
   1.976        -24.583
   1.978        -24.583
   1.980        -24.583
   1.983        -24.582
   1.985        -24.582
   1.987        -24.582
   1.989        -24.582
   1.991        -24.582
   1.993        -24.581
   1.996        -24.581
   1.998        -24.581
   2.000        -24.581
   2.002        -24.581
   2.004        -24.580
   2.007        -24.580
   2.009        -24.580
   2.011        -24.580
   2.013        -24.579
   2.015        -24.579
   2.017        -24.579
   2.020        -24.579
   2.022        -24.578
   2.024        -24.578
   2.026        -24.578
   2.028        -24.578
   2.030        -24.577
   2.033        -24.577
   2.035        -24.577
   2.037        -24.577
   2.039        -24.576
   2.041        -24.576
   2.043        -24.576
   2.046        -24.575
   2.048        -24.575
   2.050        -24.575
   2.052        -24.575
   2.054        -24.574
   2.056        -24.574
   2.059        -24.574
   2.061        -24.574
   2.063        -24.573
   2.065        -24.573
   2.067        -24.573
   2.069        -24.573
   2.072        -24.572
   2.074        -24.572
   2.076        -24.572
   2.078        -24.571
   2.080        -24.571
   2.083        -24.571
   2.085        -24.571
   2.087        -24.570
   2.089        -24.570
   2.091        -24.570
   2.093        -24.570
   2.096        -24.569
   2.098        -24.569
   2.100        -24.569
   2.102        -24.569
   2.104        -24.568
   2.106        -24.568
   2.109        -24.568
   2.111        -24.568
   2.113        -24.567
   2.115        -24.567
   2.117        -24.567
   2.120        -24.567
   2.122        -24.567
   2.124        -24.567
   2.126        -24.566
   2.128        -24.566
   2.130        -24.566
   2.133        -24.566
   2.135        -24.566
   2.137        -24.566
   2.139        -24.566
   2.141        -24.566
   2.143        -24.566
   2.145        -24.565
   2.148        -24.566
   2.150        -24.565
   2.152        -24.566
   2.154        -24.565
   2.157        -24.565
   2.158        -24.565
   2.161        -24.566
   2.163        -24.566
   2.165        -24.566
   2.167        -24.565
   2.169        -24.566
   2.172        -24.566
   2.174        -24.566
   2.176        -24.566
   2.178        -24.567
   2.180        -24.567
   2.183        -24.567
   2.185        -24.567
   2.187        -24.567
   2.189        -24.568
   2.191        -24.568
   2.193        -24.568
   2.195        -24.569
   2.197        -24.569
   2.200        -24.570
   2.202        -24.570
   2.204        -24.571
   2.206        -24.571
   2.208        -24.572
   2.211        -24.572
   2.213        -24.573
   2.215        -24.573
   2.217        -24.574
   2.219        -24.575
   2.221        -24.575
   2.224        -24.576
   2.226        -24.577
   2.228        -24.578
   2.230        -24.578
   2.232        -24.579
   2.235        -24.580
   2.237        -24.581
   2.239        -24.582
   2.241        -24.583
   2.243        -24.584
   2.245        -24.585
   2.247        -24.586
   2.250        -24.587
   2.252        -24.588
   2.254        -24.589
   2.256        -24.590
   2.259        -24.591
   2.261        -24.593
   2.263        -24.594
   2.265        -24.595
   2.267        -24.597
   2.269        -24.598
   2.271        -24.599
   2.274        -24.600
   2.276        -24.601
   2.278        -24.603
   2.280        -24.605
   2.282        -24.606
   2.284        -24.608
   2.287        -24.609
   2.289        -24.611
   2.291        -24.612
   2.293        -24.614
   2.295        -24.616
   2.297        -24.617
   2.299        -24.619
   2.302        -24.621
   2.304        -24.623
   2.306        -24.625
   2.308        -24.626
   2.310        -24.628
   2.313        -24.630
   2.315        -24.632
   2.317        -24.634
   2.319        -24.635
   2.321        -24.637
   2.323        -24.639
   2.326        -24.641
   2.328        -24.643
   2.330        -24.646
   2.332        -24.648
   2.334        -24.650
   2.337        -24.652
   2.339        -24.654
   2.341        -24.656
   2.343        -24.658
   2.345        -24.660
   2.347        -24.663
   2.349        -24.665
   2.352        -24.667
   2.354        -24.669
   2.356        -24.671
   2.358        -24.674
   2.360        -24.676
   2.363        -24.678
   2.365        -24.681
   2.367        -24.683
   2.369        -24.686
   2.371        -24.688
   2.374        -24.690
   2.376        -24.693
   2.378        -24.695
   2.380        -24.697
   2.382        -24.700
   2.384        -24.702
   2.386        -24.705
   2.389        -24.707
   2.391        -24.710
   2.393        -24.712
   2.395        -24.715
   2.397        -24.717
   2.400        -24.720
   2.402        -24.722
   2.404        -24.724
   2.406        -24.727
   2.408        -24.729
   2.410        -24.732
   2.413        -24.734
   2.415        -24.737
   2.417        -24.740
   2.419        -24.742
   2.421        -24.745
   2.423        -24.747
   2.425        -24.749
   2.428        -24.752
   2.430        -24.755
   2.432        -24.757
   2.434        -24.760
   2.436        -24.762
   2.439        -24.765
   2.441        -24.768
   2.443        -24.770
   2.445        -24.773
   2.447        -24.775
   2.449        -24.778
   2.452        -24.780
   2.454        -24.783
   2.456        -24.785
   2.458        -24.788
   2.460        -24.790
   2.462        -24.793
   2.465        -24.795
   2.467        -24.798
   2.469        -24.800
   2.471        -24.803
   2.473        -24.805
   2.475        -24.808
   2.478        -24.811
   2.480        -24.813
   2.482        -24.815
   2.484        -24.818
   2.486        -24.820
   2.489        -24.823
   2.491        -24.825
   2.493        -24.828
   2.495        -24.830
   2.497        -24.833
   2.499        -24.835
   2.502        -24.837
   2.504        -24.840
   2.506        -24.842
   2.508        -24.844
   2.510        -24.847
   2.512        -24.849
   2.514        -24.851
   2.517        -24.854
   2.519        -24.856
   2.521        -24.858
   2.523        -24.861
   2.525        -24.863
   2.528        -24.866
   2.530        -24.868
   2.532        -24.870
   2.534        -24.872
   2.536        -24.875
   2.538        -24.877
   2.541        -24.879
   2.543        -24.882
   2.545        -24.884
   2.547        -24.886
   2.549        -24.889
   2.552        -24.891
   2.554        -24.893
   2.556        -24.895
   2.558        -24.897
   2.560        -24.900
   2.562        -24.902
   2.565        -24.904
   2.567        -24.906
   2.569        -24.908
   2.571        -24.910
   2.573        -24.912
   2.575        -24.914
   2.578        -24.917
   2.580        -24.918
   2.582        -24.921
   2.584        -24.923
   2.586        -24.925
   2.588        -24.927
   2.590        -24.929
   2.593        -24.931
   2.595        -24.933
   2.597        -24.935
   2.599        -24.937
   2.601        -24.939
   2.604        -24.941
   2.606        -24.943
   2.608        -24.945
   2.610        -24.947
   2.612        -24.949
   2.614        -24.951
   2.617        -24.953
   2.619        -24.955
   2.621        -24.957
   2.623        -24.958
   2.625        -24.960
   2.627        -24.962
   2.630        -24.964
   2.632        -24.966
   2.634        -24.968
   2.636        -24.970
   2.638        -24.971
   2.641        -24.973
   2.643        -24.975
   2.645        -24.977
   2.647        -24.979
   2.649        -24.980
   2.651        -24.982
   2.654        -24.984
   2.656        -24.985
   2.658        -24.987
   2.660        -24.989
   2.662        -24.991
   2.664        -24.992
   2.666        -24.994
   2.669        -24.996
   2.671        -24.997
   2.673        -24.999
   2.675        -25.001
   2.677        -25.002
   2.680        -25.004
   2.682        -25.005
   2.684        -25.007
   2.686        -25.009
   2.688        -25.010
   2.690        -25.012
   2.693        -25.013
   2.695        -25.015
   2.697        -25.016
   2.699        -25.018
   2.701        -25.019
   2.703        -25.021
   2.706        -25.022
   2.708        -25.023
   2.710        -25.025
   2.712        -25.026
   2.714        -25.028
   2.716        -25.029
   2.719        -25.030
   2.721        -25.032
   2.723        -25.032
   2.725        -25.034
   2.727        -25.035
   2.729        -25.036
   2.732        -25.037
   2.734        -25.039
   2.736        -25.040
   2.738        -25.041
   2.740        -25.042
   2.743        -25.043
   2.745        -25.044
   2.747        -25.045
   2.749        -25.046
   2.751        -25.048
   2.753        -25.049
   2.756        -25.050
   2.758        -25.051
   2.760        -25.052
   2.762        -25.053
   2.764        -25.054
   2.766        -25.055
   2.769        -25.056
   2.771        -25.057
   2.773        -25.058
   2.775        -25.059
   2.777        -25.060
   2.779        -25.062
   2.782        -25.062
   2.784        -25.063
   2.786        -25.064
   2.788        -25.065
   2.790        -25.066
   2.792        -25.067
   2.795        -25.068
   2.797        -25.069
   2.799        -25.070
   2.801        -25.071
   2.803        -25.072
   2.805        -25.073
   2.808        -25.074
   2.810        -25.075
   2.812        -25.076
   2.814        -25.077
   2.816        -25.078
   2.819        -25.079
   2.821        -25.080
   2.823        -25.081
   2.825        -25.082
   2.827        -25.083
   2.829        -25.084
   2.832        -25.085
   2.834        -25.086
   2.836        -25.087
   2.838        -25.087
   2.840        -25.088
   2.842        -25.089
   2.845        -25.090
   2.847        -25.091
   2.849        -25.092
   2.851        -25.093
   2.853        -25.094
   2.855        -25.095
   2.858        -25.096
   2.860        -25.097
   2.862        -25.097
   2.864        -25.098
   2.866        -25.099
   2.868        -25.100
   2.871        -25.101
   2.873        -25.102
   2.875        -25.103
   2.877        -25.104
   2.879        -25.105
   2.881        -25.105
   2.884        -25.106
   2.886        -25.107
   2.888        -25.108
   2.890        -25.109
   2.892        -25.110
   2.894        -25.111
   2.897        -25.112
   2.899        -25.113
   2.901        -25.113
   2.903        -25.114
   2.905        -25.115
   2.908        -25.116
   2.910        -25.117
   2.912        -25.118
   2.914        -25.119
   2.916        -25.120
   2.918        -25.121
   2.921        -25.121
   2.923        -25.122
   2.925        -25.123
   2.927        -25.124
   2.929        -25.125
   2.931        -25.126
   2.934        -25.127
   2.936        -25.128
   2.938        -25.129
   2.940        -25.129
   2.942        -25.130
   2.944        -25.131
   2.947        -25.132
   2.949        -25.133
   2.951        -25.134
   2.953        -25.135
   2.955        -25.136
   2.957        -25.136
   2.960        -25.137
   2.962        -25.138
   2.964        -25.139
   2.966        -25.140
   2.968        -25.141
   2.970        -25.142
   2.973        -25.143
   2.975        -25.144
   2.977        -25.145
   2.979        -25.145
   2.981        -25.146
   2.984        -25.147
   2.986        -25.148
   2.988        -25.149
   2.990        -25.150
   2.992        -25.151
   2.994        -25.152
   2.997        -25.153
   2.999        -25.154
   3.001        -25.155
   3.003        -25.155
   3.005        -25.156
   3.007        -25.157
   3.010        -25.158
   3.012        -25.159
   3.014        -25.160
   3.016        -25.161
   3.018        -25.162
   3.020        -25.163
   3.023        -25.164
   3.025        -25.165
   3.027        -25.166
   3.029        -25.166
   3.031        -25.167
   3.033        -25.168
   3.036        -25.169
   3.038        -25.170
   3.040        -25.171
   3.042        -25.172
   3.044        -25.173
   3.046        -25.174
   3.049        -25.175
   3.051        -25.176
   3.053        -25.177
   3.055        -25.178
   3.057        -25.178
   3.060        -25.179
   3.062        -25.180
   3.064        -25.181
   3.066        -25.182
   3.068        -25.183
   3.070        -25.184
   3.073        -25.185
   3.075        -25.186
   3.077        -25.187
   3.079        -25.188
   3.081        -25.189
   3.083        -25.190
   3.086        -25.191
   3.088        -25.191
   3.090        -25.193
   3.092        -25.193
   3.094        -25.194
   3.096        -25.195
   3.099        -25.196
   3.101        -25.197
   3.103        -25.198
   3.105        -25.199
   3.107        -25.200
   3.109        -25.201
   3.112        -25.202
   3.114        -25.203
   3.116        -25.204
   3.118        -25.205
   3.120        -25.206
   3.123        -25.207
   3.125        -25.207
   3.127        -25.208
   3.129        -25.209
   3.131        -25.210
   3.133        -25.211
   3.136        -25.212
   3.138        -25.213
   3.140        -25.214
   3.142        -25.215
   3.144        -25.216
   3.146        -25.217
   3.149        -25.218
   3.151        -25.219
   3.153        -25.220
   3.155        -25.220
   3.157        -25.222
   3.159        -25.222
   3.162        -25.223
   3.164        -25.224
   3.166        -25.225
   3.168        -25.226
   3.170        -25.227
   3.172        -25.228
   3.175        -25.229
   3.177        -25.230
   3.179        -25.231
   3.181        -25.232
   3.183        -25.233
   3.185        -25.234
   3.188        -25.235
   3.190        -25.236
   3.192        -25.236
   3.194        -25.237
   3.196        -25.238
   3.199        -25.239
   3.201        -25.240
   3.203        -25.241
   3.205        -25.242
   3.207        -25.243
   3.209        -25.244
   3.212        -25.245
   3.214        -25.246
   3.216        -25.246
   3.218        -25.248
   3.220        -25.248
   3.222        -25.249
   3.225        -25.250
   3.227        -25.251
   3.229        -25.252
   3.231        -25.253
   3.233        -25.254
   3.236        -25.255
   3.237        -25.256
   3.240        -25.257
   3.242        -25.258
   3.244        -25.258
   3.246        -25.259
   3.248        -25.260
   3.251        -25.261
   3.253        -25.262
   3.255        -25.263
   3.257        -25.264
   3.259        -25.265
   3.261        -25.266
   3.263        -25.267
   3.266        -25.267
   3.268        -25.269
   3.270        -25.269
   3.272        -25.270
   3.274        -25.271
   3.277        -25.272
   3.279        -25.273
   3.281        -25.274
   3.283        -25.275
   3.285        -25.276
   3.287        -25.277
   3.290        -25.278
   3.292        -25.278
   3.294        -25.279
   3.296        -25.280
   3.298        -25.281
   3.301        -25.282
   3.303        -25.283
   3.305        -25.284
   3.307        -25.285
   3.309        -25.286
   3.311        -25.286
   3.313        -25.287
   3.316        -25.288
   3.318        -25.289
   3.320        -25.290
   3.322        -25.291
   3.324        -25.292
   3.327        -25.293
   3.329        -25.294
   3.331        -25.295
   3.333        -25.296
   3.335        -25.296
   3.337        -25.298
   3.340        -25.298
   3.342        -25.299
   3.344        -25.300
   3.346        -25.301
   3.348        -25.302
   3.350        -25.303
   3.352        -25.304
   3.355        -25.305
   3.357        -25.306
   3.359        -25.307
   3.361        -25.307
   3.363        -25.308
   3.366        -25.309
   3.368        -25.310
   3.370        -25.311
   3.372        -25.312
   3.374        -25.313
   3.376        -25.314
   3.379        -25.315
   3.381        -25.316
   3.383        -25.317
   3.385        -25.318
   3.387        -25.319
   3.389        -25.319
   3.392        -25.320
   3.394        -25.321
   3.396        -25.322
   3.398        -25.323
   3.400        -25.324
   3.402        -25.325
   3.405        -25.326
   3.407        -25.327
   3.409        -25.328
   3.411        -25.329
   3.413        -25.330
   3.416        -25.331
   3.418        -25.332
   3.420        -25.333
   3.422        -25.334
   3.424        -25.334
   3.426        -25.335
   3.429        -25.336
   3.431        -25.337
   3.433        -25.338
   3.435        -25.339
   3.437        -25.340
   3.439        -25.341
   3.442        -25.342
   3.444        -25.343
   3.446        -25.344
   3.448        -25.345
   3.450        -25.346
   3.452        -25.347
   3.455        -25.348
   3.457        -25.348
   3.459        -25.349
   3.461        -25.350
   3.463        -25.351
   3.466        -25.352
   3.468        -25.353
   3.470        -25.354
   3.472        -25.355
   3.474        -25.356
   3.476        -25.357
   3.478        -25.358
   3.481        -25.359
   3.483        -25.360
   3.485        -25.361
   3.487        -25.362
   3.489        -25.363
   3.492        -25.364
   3.494        -25.365
   3.496        -25.366
   3.498        -25.367
   3.500        -25.367
   3.502        -25.368
   3.505        -25.369
   3.507        -25.370
   3.509        -25.371
   3.511        -25.372
   3.513        -25.373
   3.515        -25.374
   3.518        -25.375
   3.520        -25.376
   3.522        -25.377
   3.524        -25.378
   3.526        -25.379
   3.528        -25.380
   3.531        -25.381
   3.533        -25.382
   3.535        -25.382
   3.537        -25.383
   3.539        -25.384
   3.541        -25.385
   3.544        -25.386
   3.546        -25.387
   3.548        -25.388
   3.550        -25.389
   3.552        -25.390
   3.555        -25.391
   3.557        -25.392
   3.559        -25.393
   3.561        -25.394
   3.563        -25.395
   3.565        -25.396
   3.568        -25.397
   3.570        -25.398
   3.572        -25.398
   3.574        -25.400
   3.576        -25.400
   3.578        -25.401
   3.581        -25.402
   3.583        -25.403
   3.585        -25.404
   3.587        -25.405
   3.589        -25.406
   3.591        -25.407
   3.594        -25.408
   3.596        -25.409
   3.598        -25.410
   3.600        -25.411
   3.602        -25.411
   3.604        -25.412
   3.607        -25.413
   3.609        -25.414
   3.611        -25.415
   3.613        -25.416
   3.615        -25.417
   3.617        -25.418
   3.620        -25.419
   3.622        -25.420
   3.624        -25.421
   3.626        -25.422
   3.628        -25.423
   3.630        -25.423
   3.633        -25.424
   3.635        -25.425
   3.637        -25.426
   3.639        -25.427
   3.641        -25.428
   3.644        -25.429
   3.646        -25.430
   3.648        -25.431
   3.650        -25.432
   3.652        -25.433
   3.654        -25.434
   3.657        -25.434
   3.659        -25.435
   3.661        -25.436
   3.663        -25.437
   3.665        -25.438
   3.667        -25.439
   3.670        -25.440
   3.672        -25.441
   3.674        -25.441
   3.676        -25.442
   3.678        -25.443
   3.680        -25.444
   3.683        -25.445
   3.685        -25.446
   3.687        -25.447
   3.689        -25.448
   3.691        -25.448
   3.693        -25.449
   3.696        -25.450
   3.698        -25.451
   3.700        -25.452
   3.702        -25.453
   3.704        -25.454
   3.706        -25.454
   3.709        -25.455
   3.711        -25.456
   3.713        -25.457
   3.715        -25.458
   3.717        -25.459
   3.719        -25.459
   3.722        -25.460
   3.724        -25.461
   3.726        -25.462
   3.728        -25.463
   3.730        -25.464
   3.733        -25.465
   3.735        -25.465
   3.737        -25.466
   3.739        -25.467
   3.741        -25.468
   3.743        -25.469
   3.746        -25.469
   3.748        -25.470
   3.750        -25.471
   3.752        -25.472
   3.754        -25.473
   3.756        -25.474
   3.759        -25.474
   3.761        -25.475
   3.763        -25.476
   3.765        -25.477
   3.767        -25.478
   3.769        -25.478
   3.772        -25.479
   3.774        -25.480
   3.776        -25.481
   3.778        -25.482
   3.780        -25.482
   3.782        -25.483
   3.785        -25.484
   3.787        -25.485
   3.789        -25.486
   3.791        -25.487
   3.793        -25.487
   3.795        -25.488
   3.798        -25.489
   3.800        -25.490
   3.802        -25.490
   3.804        -25.491
   3.806        -25.492
   3.809        -25.493
   3.811        -25.494
   3.813        -25.494
   3.815        -25.495
   3.817        -25.496
   3.819        -25.497
   3.822        -25.497
   3.824        -25.498
   3.826        -25.499
   3.828        -25.500
   3.830        -25.500
   3.832        -25.501
   3.835        -25.502
   3.837        -25.503
   3.839        -25.504
   3.841        -25.504
   3.843        -25.505
   3.845        -25.506
   3.848        -25.506
   3.850        -25.507
   3.852        -25.508
   3.854        -25.509
   3.856        -25.509
   3.858        -25.510
   3.861        -25.511
   3.863        -25.512
   3.865        -25.512
   3.867        -25.513
   3.869        -25.514
   3.871        -25.514
   3.874        -25.515
   3.876        -25.516
   3.878        -25.517
   3.880        -25.517
   3.882        -25.518
   3.885        -25.519
   3.887        -25.520
   3.889        -25.521
   3.891        -25.521
   3.899        -25.524
   3.912        -25.528
   3.925        -25.533
   3.938        -25.538
   3.951        -25.543
   3.964        -25.548
   3.977        -25.553
   3.990        -25.559
   4.003        -25.565
   4.016        -25.571
   4.029        -25.577
   4.042        -25.583
   4.055        -25.590
   4.068        -25.597
   4.081        -25.604
   4.094        -25.611
   4.107        -25.619
   4.120        -25.627
   4.133        -25.635
   4.146        -25.644
   4.159        -25.652
   4.172        -25.661
   4.185        -25.671
   4.198        -25.680
   4.211        -25.690
   4.224        -25.700
   4.237        -25.711
   4.250        -25.721
   4.263        -25.733
   4.276        -25.744
   4.289        -25.756
   4.302        -25.768
   4.315        -25.780
   4.328        -25.792
   4.341        -25.804
   4.354        -25.817
   4.367        -25.830
   4.380        -25.844
   4.393        -25.858
   4.406        -25.872
   4.420        -25.886
   4.432        -25.899
   4.445        -25.914
   4.459        -25.928
   4.471        -25.943
   4.484        -25.958
   4.498        -25.973
   4.510        -25.988
   4.524        -26.004
   4.537        -26.019
   4.550        -26.035
   4.563        -26.051
   4.576        -26.067
   4.589        -26.083
   4.602        -26.099
   4.615        -26.115
   4.628        -26.132
   4.641        -26.149
   4.654        -26.166
   4.667        -26.183
   4.680        -26.200
   4.693        -26.217
   4.706        -26.234
   4.719        -26.252
   4.732        -26.269
   4.745        -26.287
   4.758        -26.305
   4.771        -26.323
   4.784        -26.341
   4.797        -26.359
   4.810        -26.378
   4.823        -26.397
   4.836        -26.415
   4.849        -26.434
   4.862        -26.453
   4.875        -26.472
   4.888        -26.491
   4.901        -26.510
   4.914        -26.529
   4.927        -26.549
   4.940        -26.569
   4.953        -26.588
   4.966        -26.608
   4.979        -26.628
   4.992        -26.648
   5.005        -26.668
   5.018        -26.688
   5.031        -26.708
   5.044        -26.729
   5.057        -26.750
   5.070        -26.770
   5.083        -26.791
   5.096        -26.812
   5.109        -26.833
   5.123        -26.854
   5.136        -26.875
   5.149        -26.897
   5.162        -26.918
   5.175        -26.940
   5.188        -26.962
   5.201        -26.983
   5.214        -27.006
   5.227        -27.028
   5.240        -27.050
   5.253        -27.073
   5.266        -27.096
   5.279        -27.119
   5.292        -27.142
   5.305        -27.166
   5.318        -27.189
   5.331        -27.213
   5.344        -27.237
   5.357        -27.262
   5.370        -27.287
   5.383        -27.312
   5.396        -27.337
   5.409        -27.363
   5.422        -27.389
   5.435        -27.415
   5.448        -27.442
   5.461        -27.469
   5.474        -27.496
   5.487        -27.524
   5.500        -27.552
   5.513        -27.580
   5.526        -27.609
   5.539        -27.639
   5.552        -27.668
   5.565        -27.699
   5.578        -27.729
   5.591        -27.760
   5.604        -27.792
   5.617        -27.824
   5.630        -27.856
   5.643        -27.890
   5.656        -27.923
   5.669        -27.957
   5.682        -27.991
   5.695        -28.026
   5.708        -28.062
   5.721        -28.098
   5.734        -28.135
   5.748        -28.173
   5.761        -28.211
   5.774        -28.249
   5.787        -28.289
   5.800        -28.329
   5.813        -28.370
   5.826        -28.411
   5.839        -28.453
   5.852        -28.496
   5.865        -28.540
   5.878        -28.584
   5.891        -28.630
   5.904        -28.676
   5.917        -28.723
   5.930        -28.771
   5.943        -28.819
   5.956        -28.869
   5.969        -28.919
   5.982        -28.970
   5.995        -29.023
   6.008        -29.077
   6.021        -29.131
   6.034        -29.186
   6.047        -29.242
   6.060        -29.300
   6.073        -29.359
   6.086        -29.418
   6.099        -29.480
   6.112        -29.542
   6.125        -29.605
   6.138        -29.670
   6.151        -29.735
   6.164        -29.803
   6.177        -29.872
   6.190        -29.942
   6.203        -30.014
   6.216        -30.087
   6.229        -30.161
   6.242        -30.238
   6.255        -30.315
   6.268        -30.395
   6.281        -30.476
   6.294        -30.559
   6.307        -30.643
   6.320        -30.730
   6.334        -30.818
   6.346        -30.909
   6.359        -31.001
   6.372        -31.095
   6.386        -31.192
   6.399        -31.291
   6.411        -31.392
   6.425        -31.495
   6.438        -31.601
   6.451        -31.708
   6.464        -31.818
   6.477        -31.931
   6.490        -32.046
   6.503        -32.165
   6.516        -32.287
   6.529        -32.410
   6.542        -32.538
   6.555        -32.668
   6.568        -32.800
   6.581        -32.937
   6.594        -33.077
   6.607        -33.222
   6.620        -33.369
   6.633        -33.518
   6.646        -33.671
   6.659        -33.829
   6.672        -33.992
   6.685        -34.158
   6.698        -34.328
   6.711        -34.504
   6.724        -34.685
   6.737        -34.869
   6.750        -35.058
   6.763        -35.257
   6.776        -35.465
   6.789        -35.674
   6.802        -35.890
   6.815        -36.116
   6.828        -36.371
   6.841        -36.650
   6.854        -36.976
   6.867        -37.641
   6.880        -38.742
