# log Energy    log Jnu
# (eV)          (ergs/s/cm2/Hz/Sr)
  -6.864        -20.722
  -6.820        -20.635
  -6.777        -20.548
  -6.734        -20.461
  -6.690        -20.374
  -6.647        -20.288
  -6.603        -20.201
  -6.560        -20.114
  -6.516        -20.027
  -6.473        -19.940
  -6.430        -19.853
  -6.386        -19.766
  -6.343        -19.680
  -6.299        -19.593
  -6.256        -19.506
  -6.212        -19.419
  -6.169        -19.332
  -6.126        -19.245
  -6.082        -19.159
  -6.039        -19.072
  -5.995        -18.985
  -5.952        -18.898
  -5.908        -18.811
  -5.865        -18.725
  -5.822        -18.638
  -5.778        -18.551
  -5.735        -18.464
  -5.691        -18.378
  -5.648        -18.291
  -5.605        -18.204
  -5.561        -18.118
  -5.518        -18.031
  -5.474        -17.944
  -5.431        -17.857
  -5.387        -17.771
  -5.344        -17.684
  -5.300        -17.598
  -5.257        -17.511
  -5.214        -17.424
  -5.170        -17.338
  -5.127        -17.251
  -5.083        -17.165
  -5.040        -17.079
  -4.996        -16.992
  -4.953        -16.906
  -4.910        -16.820
  -4.866        -16.734
  -4.823        -16.648
  -4.779        -16.562
  -4.736        -16.476
  -4.692        -16.390
  -4.649        -16.304
  -4.606        -16.218
  -4.562        -16.133
  -4.519        -16.048
  -4.475        -15.963
  -4.432        -15.878
  -4.388        -15.793
  -4.345        -15.709
  -4.302        -15.624
  -4.258        -15.540
  -4.215        -15.457
  -4.171        -15.373
  -4.128        -15.290
  -4.084        -15.208
  -4.041        -15.126
  -3.998        -15.044
  -3.954        -14.963
  -3.911        -14.883
  -3.867        -14.804
  -3.824        -14.725
  -3.781        -14.647
  -3.737        -14.570
  -3.693        -14.495
  -3.650        -14.420
  -3.607        -14.348
  -3.584        -14.314
  -3.582        -14.305
  -3.580        -14.303
  -3.577        -14.300
  -3.575        -14.297
  -3.573        -14.293
  -3.571        -14.290
  -3.569        -14.286
  -3.567        -14.283
  -3.564        -14.279
  -3.562        -14.276
  -3.560        -14.272
  -3.558        -14.269
  -3.556        -14.265
  -3.554        -14.262
  -3.551        -14.258
  -3.549        -14.255
  -3.547        -14.251
  -3.545        -14.248
  -3.543        -14.244
  -3.540        -14.241
  -3.538        -14.237
  -3.536        -14.234
  -3.534        -14.230
  -3.532        -14.227
  -3.530        -14.223
  -3.528        -14.220
  -3.525        -14.217
  -3.523        -14.213
  -3.521        -14.210
  -3.519        -14.206
  -3.517        -14.203
  -3.514        -14.199
  -3.512        -14.196
  -3.510        -14.192
  -3.508        -14.189
  -3.506        -14.186
  -3.504        -14.182
  -3.502        -14.179
  -3.499        -14.176
  -3.497        -14.172
  -3.495        -14.169
  -3.493        -14.165
  -3.491        -14.162
  -3.488        -14.159
  -3.486        -14.155
  -3.484        -14.152
  -3.482        -14.149
  -3.480        -14.145
  -3.477        -14.142
  -3.475        -14.139
  -3.473        -14.135
  -3.471        -14.132
  -3.469        -14.129
  -3.467        -14.125
  -3.464        -14.122
  -3.462        -14.119
  -3.460        -14.116
  -3.458        -14.112
  -3.456        -14.109
  -3.454        -14.106
  -3.451        -14.103
  -3.449        -14.099
  -3.447        -14.096
  -3.445        -14.093
  -3.443        -14.090
  -3.441        -14.086
  -3.438        -14.083
  -3.436        -14.080
  -3.434        -14.077
  -3.432        -14.074
  -3.430        -14.070
  -3.428        -14.067
  -3.425        -14.064
  -3.423        -14.061
  -3.421        -14.058
  -3.419        -14.054
  -3.417        -14.051
  -3.415        -14.048
  -3.412        -14.045
  -3.410        -14.042
  -3.408        -14.039
  -3.406        -14.036
  -3.404        -14.032
  -3.402        -14.030
  -3.399        -14.026
  -3.397        -14.023
  -3.395        -14.020
  -3.393        -14.017
  -3.391        -14.014
  -3.389        -14.011
  -3.386        -14.008
  -3.384        -14.005
  -3.382        -14.002
  -3.380        -13.999
  -3.378        -13.996
  -3.376        -13.993
  -3.373        -13.990
  -3.371        -13.987
  -3.369        -13.984
  -3.367        -13.981
  -3.365        -13.978
  -3.362        -13.975
  -3.360        -13.972
  -3.358        -13.969
  -3.356        -13.966
  -3.354        -13.963
  -3.352        -13.960
  -3.349        -13.957
  -3.347        -13.954
  -3.345        -13.951
  -3.343        -13.948
  -3.341        -13.945
  -3.339        -13.942
  -3.336        -13.940
  -3.334        -13.937
  -3.332        -13.934
  -3.330        -13.931
  -3.328        -13.928
  -3.326        -13.925
  -3.323        -13.922
  -3.321        -13.920
  -3.319        -13.917
  -3.317        -13.914
  -3.315        -13.911
  -3.313        -13.909
  -3.310        -13.906
  -3.308        -13.903
  -3.306        -13.900
  -3.304        -13.898
  -3.302        -13.895
  -3.300        -13.892
  -3.297        -13.889
  -3.295        -13.887
  -3.293        -13.884
  -3.291        -13.881
  -3.289        -13.879
  -3.287        -13.876
  -3.284        -13.873
  -3.282        -13.871
  -3.280        -13.868
  -3.278        -13.865
  -3.276        -13.863
  -3.273        -13.860
  -3.271        -13.857
  -3.269        -13.855
  -3.267        -13.852
  -3.265        -13.850
  -3.263        -13.847
  -3.260        -13.845
  -3.258        -13.842
  -3.256        -13.839
  -3.254        -13.837
  -3.252        -13.835
  -3.250        -13.832
  -3.247        -13.830
  -3.245        -13.827
  -3.243        -13.825
  -3.241        -13.822
  -3.239        -13.820
  -3.237        -13.817
  -3.234        -13.815
  -3.232        -13.812
  -3.230        -13.810
  -3.228        -13.808
  -3.226        -13.805
  -3.224        -13.803
  -3.221        -13.801
  -3.219        -13.798
  -3.217        -13.796
  -3.215        -13.794
  -3.213        -13.791
  -3.211        -13.789
  -3.208        -13.787
  -3.206        -13.785
  -3.204        -13.782
  -3.202        -13.780
  -3.200        -13.778
  -3.197        -13.776
  -3.195        -13.773
  -3.193        -13.771
  -3.191        -13.769
  -3.189        -13.767
  -3.187        -13.765
  -3.184        -13.763
  -3.182        -13.761
  -3.180        -13.758
  -3.178        -13.756
  -3.176        -13.754
  -3.174        -13.752
  -3.171        -13.750
  -3.169        -13.748
  -3.167        -13.746
  -3.165        -13.744
  -3.163        -13.742
  -3.161        -13.740
  -3.158        -13.738
  -3.156        -13.736
  -3.154        -13.734
  -3.152        -13.732
  -3.150        -13.730
  -3.148        -13.728
  -3.145        -13.727
  -3.143        -13.725
  -3.141        -13.723
  -3.139        -13.721
  -3.137        -13.719
  -3.135        -13.717
  -3.132        -13.715
  -3.130        -13.714
  -3.128        -13.712
  -3.126        -13.710
  -3.124        -13.708
  -3.122        -13.707
  -3.119        -13.705
  -3.117        -13.703
  -3.115        -13.702
  -3.113        -13.700
  -3.111        -13.698
  -3.108        -13.697
  -3.106        -13.695
  -3.104        -13.694
  -3.102        -13.692
  -3.100        -13.690
  -3.098        -13.689
  -3.095        -13.687
  -3.093        -13.686
  -3.091        -13.684
  -3.089        -13.683
  -3.087        -13.681
  -3.085        -13.680
  -3.082        -13.679
  -3.080        -13.677
  -3.078        -13.676
  -3.076        -13.675
  -3.074        -13.673
  -3.072        -13.672
  -3.069        -13.671
  -3.067        -13.669
  -3.065        -13.668
  -3.063        -13.667
  -3.061        -13.665
  -3.059        -13.664
  -3.056        -13.663
  -3.054        -13.662
  -3.052        -13.661
  -3.050        -13.660
  -3.048        -13.658
  -3.046        -13.657
  -3.043        -13.656
  -3.041        -13.655
  -3.039        -13.654
  -3.037        -13.653
  -3.035        -13.652
  -3.032        -13.651
  -3.030        -13.650
  -3.028        -13.649
  -3.026        -13.648
  -3.024        -13.647
  -3.022        -13.647
  -3.019        -13.646
  -3.017        -13.645
  -3.015        -13.644
  -3.013        -13.643
  -3.011        -13.643
  -3.009        -13.642
  -3.006        -13.641
  -3.004        -13.640
  -3.002        -13.640
  -3.000        -13.639
  -2.998        -13.638
  -2.996        -13.638
  -2.993        -13.637
  -2.991        -13.637
  -2.989        -13.636
  -2.987        -13.636
  -2.985        -13.635
  -2.983        -13.635
  -2.980        -13.634
  -2.978        -13.634
  -2.976        -13.633
  -2.974        -13.633
  -2.972        -13.633
  -2.970        -13.632
  -2.967        -13.632
  -2.965        -13.632
  -2.963        -13.632
  -2.961        -13.631
  -2.959        -13.631
  -2.956        -13.631
  -2.954        -13.631
  -2.952        -13.631
  -2.950        -13.631
  -2.948        -13.630
  -2.946        -13.630
  -2.944        -13.630
  -2.941        -13.630
  -2.939        -13.631
  -2.937        -13.631
  -2.935        -13.631
  -2.933        -13.631
  -2.930        -13.631
  -2.928        -13.631
  -2.926        -13.631
  -2.924        -13.632
  -2.922        -13.632
  -2.920        -13.632
  -2.917        -13.632
  -2.915        -13.633
  -2.913        -13.633
  -2.911        -13.634
  -2.909        -13.634
  -2.907        -13.634
  -2.904        -13.635
  -2.902        -13.635
  -2.900        -13.636
  -2.898        -13.637
  -2.896        -13.637
  -2.894        -13.638
  -2.891        -13.638
  -2.889        -13.639
  -2.887        -13.640
  -2.885        -13.641
  -2.883        -13.642
  -2.880        -13.642
  -2.878        -13.643
  -2.876        -13.644
  -2.874        -13.645
  -2.872        -13.646
  -2.870        -13.647
  -2.867        -13.648
  -2.865        -13.649
  -2.863        -13.650
  -2.861        -13.651
  -2.859        -13.653
  -2.857        -13.654
  -2.855        -13.655
  -2.852        -13.656
  -2.850        -13.657
  -2.848        -13.659
  -2.846        -13.660
  -2.843        -13.662
  -2.842        -13.663
  -2.839        -13.665
  -2.837        -13.666
  -2.835        -13.668
  -2.833        -13.669
  -2.831        -13.671
  -2.828        -13.672
  -2.826        -13.674
  -2.824        -13.676
  -2.822        -13.677
  -2.820        -13.679
  -2.817        -13.681
  -2.815        -13.683
  -2.813        -13.685
  -2.811        -13.687
  -2.809        -13.689
  -2.807        -13.691
  -2.805        -13.693
  -2.802        -13.695
  -2.800        -13.697
  -2.798        -13.700
  -2.796        -13.702
  -2.794        -13.704
  -2.792        -13.706
  -2.789        -13.709
  -2.787        -13.711
  -2.785        -13.714
  -2.783        -13.716
  -2.781        -13.719
  -2.779        -13.721
  -2.776        -13.724
  -2.774        -13.726
  -2.772        -13.729
  -2.770        -13.732
  -2.767        -13.735
  -2.765        -13.737
  -2.763        -13.740
  -2.761        -13.743
  -2.759        -13.746
  -2.757        -13.749
  -2.754        -13.752
  -2.753        -13.755
  -2.750        -13.758
  -2.748        -13.762
  -2.746        -13.765
  -2.744        -13.768
  -2.741        -13.772
  -2.739        -13.775
  -2.737        -13.778
  -2.735        -13.782
  -2.733        -13.785
  -2.731        -13.789
  -2.729        -13.792
  -2.726        -13.796
  -2.724        -13.800
  -2.722        -13.803
  -2.720        -13.807
  -2.718        -13.811
  -2.716        -13.815
  -2.713        -13.819
  -2.711        -13.823
  -2.709        -13.827
  -2.707        -13.831
  -2.705        -13.835
  -2.703        -13.839
  -2.700        -13.844
  -2.698        -13.848
  -2.696        -13.852
  -2.694        -13.857
  -2.692        -13.861
  -2.689        -13.866
  -2.687        -13.870
  -2.685        -13.875
  -2.683        -13.880
  -2.681        -13.884
  -2.679        -13.889
  -2.677        -13.894
  -2.674        -13.899
  -2.672        -13.904
  -2.670        -13.909
  -2.668        -13.914
  -2.666        -13.919
  -2.663        -13.924
  -2.661        -13.930
  -2.659        -13.935
  -2.657        -13.940
  -2.655        -13.945
  -2.653        -13.951
  -2.650        -13.957
  -2.648        -13.962
  -2.646        -13.968
  -2.644        -13.974
  -2.642        -13.979
  -2.640        -13.985
  -2.637        -13.991
  -2.635        -13.997
  -2.633        -14.003
  -2.631        -14.009
  -2.629        -14.015
  -2.626        -14.021
  -2.624        -14.028
  -2.622        -14.034
  -2.620        -14.040
  -2.618        -14.047
  -2.616        -14.053
  -2.614        -14.060
  -2.611        -14.067
  -2.609        -14.073
  -2.607        -14.080
  -2.605        -14.087
  -2.603        -14.094
  -2.600        -14.101
  -2.598        -14.108
  -2.596        -14.115
  -2.594        -14.122
  -2.592        -14.129
  -2.590        -14.137
  -2.587        -14.144
  -2.585        -14.151
  -2.583        -14.159
  -2.581        -14.166
  -2.579        -14.174
  -2.577        -14.182
  -2.574        -14.190
  -2.572        -14.198
  -2.570        -14.205
  -2.568        -14.214
  -2.566        -14.222
  -2.564        -14.230
  -2.561        -14.238
  -2.559        -14.246
  -2.557        -14.255
  -2.555        -14.263
  -2.553        -14.272
  -2.551        -14.280
  -2.548        -14.289
  -2.546        -14.298
  -2.544        -14.306
  -2.542        -14.315
  -2.540        -14.324
  -2.538        -14.333
  -2.535        -14.343
  -2.533        -14.352
  -2.531        -14.361
  -2.529        -14.370
  -2.527        -14.380
  -2.525        -14.389
  -2.522        -14.399
  -2.520        -14.408
  -2.518        -14.418
  -2.516        -14.428
  -2.514        -14.438
  -2.511        -14.448
  -2.509        -14.458
  -2.507        -14.468
  -2.505        -14.479
  -2.503        -14.489
  -2.501        -14.499
  -2.498        -14.510
  -2.496        -14.521
  -2.494        -14.531
  -2.492        -14.542
  -2.490        -14.553
  -2.488        -14.564
  -2.485        -14.575
  -2.483        -14.586
  -2.481        -14.597
  -2.479        -14.609
  -2.477        -14.620
  -2.475        -14.631
  -2.472        -14.643
  -2.470        -14.654
  -2.468        -14.666
  -2.466        -14.678
  -2.464        -14.690
  -2.462        -14.702
  -2.459        -14.714
  -2.457        -14.726
  -2.455        -14.739
  -2.453        -14.751
  -2.451        -14.763
  -2.448        -14.776
  -2.446        -14.789
  -2.444        -14.801
  -2.442        -14.814
  -2.440        -14.827
  -2.438        -14.840
  -2.435        -14.853
  -2.433        -14.867
  -2.431        -14.880
  -2.429        -14.894
  -2.427        -14.907
  -2.425        -14.921
  -2.422        -14.935
  -2.420        -14.948
  -2.418        -14.962
  -2.416        -14.976
  -2.414        -14.991
  -2.412        -15.005
  -2.409        -15.019
  -2.407        -15.034
  -2.405        -15.049
  -2.403        -15.063
  -2.401        -15.078
  -2.398        -15.093
  -2.396        -15.108
  -2.394        -15.123
  -2.392        -15.138
  -2.390        -15.154
  -2.388        -15.169
  -2.386        -15.185
  -2.383        -15.200
  -2.381        -15.216
  -2.379        -15.232
  -2.377        -15.248
  -2.375        -15.264
  -2.372        -15.280
  -2.370        -15.297
  -2.368        -15.313
  -2.366        -15.330
  -2.364        -15.346
  -2.362        -15.363
  -2.359        -15.380
  -2.357        -15.397
  -2.355        -15.414
  -2.353        -15.432
  -2.351        -15.449
  -2.349        -15.467
  -2.346        -15.484
  -2.344        -15.502
  -2.342        -15.520
  -2.340        -15.538
  -2.338        -15.556
  -2.336        -15.574
  -2.333        -15.592
  -2.331        -15.611
  -2.329        -15.630
  -2.327        -15.648
  -2.325        -15.667
  -2.323        -15.686
  -2.320        -15.705
  -2.318        -15.725
  -2.316        -15.744
  -2.314        -15.763
  -2.312        -15.783
  -2.309        -15.803
  -2.307        -15.823
  -2.305        -15.843
  -2.303        -15.863
  -2.301        -15.883
  -2.299        -15.904
  -2.297        -15.924
  -2.294        -15.945
  -2.292        -15.966
  -2.290        -15.987
  -2.288        -16.008
  -2.286        -16.029
  -2.283        -16.051
  -2.281        -16.072
  -2.279        -16.094
  -2.277        -16.116
  -2.275        -16.138
  -2.273        -16.160
  -2.270        -16.182
  -2.268        -16.204
  -2.266        -16.227
  -2.264        -16.250
  -2.262        -16.272
  -2.260        -16.295
  -2.257        -16.318
  -2.255        -16.342
  -2.253        -16.365
  -2.251        -16.389
  -2.249        -16.412
  -2.247        -16.436
  -2.244        -16.460
  -2.242        -16.485
  -2.240        -16.509
  -2.238        -16.533
  -2.236        -16.558
  -2.234        -16.583
  -2.231        -16.608
  -2.229        -16.633
  -2.227        -16.658
  -2.225        -16.683
  -2.223        -16.709
  -2.220        -16.735
  -2.218        -16.760
  -2.216        -16.786
  -2.214        -16.813
  -2.212        -16.839
  -2.210        -16.865
  -2.207        -16.892
  -2.205        -16.919
  -2.203        -16.946
  -2.201        -16.973
  -2.199        -17.000
  -2.197        -17.028
  -2.194        -17.055
  -2.192        -17.083
  -2.190        -17.111
  -2.188        -17.139
  -2.186        -17.168
  -2.184        -17.196
  -2.181        -17.225
  -2.179        -17.253
  -2.177        -17.282
  -2.175        -17.311
  -2.173        -17.341
  -2.171        -17.370
  -2.168        -17.400
  -2.166        -17.429
  -2.164        -17.459
  -2.162        -17.489
  -2.160        -17.519
  -2.158        -17.550
  -2.155        -17.580
  -2.153        -17.611
  -2.151        -17.641
  -2.149        -17.672
  -2.147        -17.703
  -2.145        -17.734
  -2.142        -17.766
  -2.140        -17.797
  -2.138        -17.828
  -2.136        -17.860
  -2.134        -17.891
  -2.131        -17.923
  -2.129        -17.955
  -2.127        -17.987
  -2.125        -18.019
  -2.123        -18.051
  -2.121        -18.082
  -2.118        -18.115
  -2.116        -18.146
  -2.114        -18.178
  -2.112        -18.210
  -2.110        -18.242
  -2.108        -18.273
  -2.105        -18.305
  -2.103        -18.336
  -2.101        -18.367
  -2.099        -18.398
  -2.097        -18.429
  -2.095        -18.459
  -2.092        -18.489
  -2.090        -18.519
  -2.088        -18.548
  -2.086        -18.577
  -2.084        -18.605
  -2.082        -18.633
  -2.079        -18.660
  -2.077        -18.686
  -2.075        -18.712
  -2.073        -18.737
  -2.071        -18.761
  -2.069        -18.784
  -2.066        -18.807
  -2.064        -18.828
  -2.062        -18.849
  -2.060        -18.868
  -2.058        -18.887
  -2.056        -18.904
  -2.053        -18.921
  -2.051        -18.936
  -2.049        -18.950
  -2.047        -18.963
  -2.045        -18.975
  -2.043        -18.987
  -2.040        -18.997
  -2.038        -19.006
  -2.036        -19.014
  -2.034        -19.021
  -2.032        -19.027
  -2.029        -19.033
  -2.027        -19.038
  -2.025        -19.042
  -2.023        -19.045
  -2.021        -19.048
  -2.019        -19.050
  -2.016        -19.051
  -2.014        -19.052
  -2.012        -19.052
  -2.010        -19.052
  -2.008        -19.052
  -2.006        -19.051
  -2.003        -19.050
  -2.001        -19.048
  -1.999        -19.047
  -1.997        -19.045
  -1.995        -19.042
  -1.993        -19.040
  -1.990        -19.037
  -1.988        -19.036
  -1.986        -19.038
  -1.984        -19.040
  -1.982        -19.042
  -1.980        -19.044
  -1.977        -19.045
  -1.975        -19.047
  -1.973        -19.048
  -1.971        -19.050
  -1.969        -19.051
  -1.967        -19.053
  -1.964        -19.054
  -1.962        -19.055
  -1.960        -19.056
  -1.958        -19.058
  -1.956        -19.059
  -1.953        -19.060
  -1.951        -19.061
  -1.949        -19.062
  -1.947        -19.063
  -1.945        -19.064
  -1.943        -19.065
  -1.940        -19.066
  -1.938        -19.067
  -1.936        -19.068
  -1.934        -19.069
  -1.932        -19.070
  -1.930        -19.071
  -1.927        -19.071
  -1.925        -19.072
  -1.923        -19.073
  -1.921        -19.074
  -1.919        -19.075
  -1.917        -19.076
  -1.914        -19.077
  -1.912        -19.078
  -1.910        -19.079
  -1.908        -19.080
  -1.906        -19.080
  -1.904        -19.081
  -1.901        -19.082
  -1.899        -19.083
  -1.897        -19.084
  -1.895        -19.085
  -1.893        -19.086
  -1.891        -19.087
  -1.888        -19.087
  -1.886        -19.088
  -1.884        -19.089
  -1.882        -19.090
  -1.880        -19.091
  -1.877        -19.092
  -1.875        -19.093
  -1.873        -19.093
  -1.871        -19.094
  -1.869        -19.095
  -1.867        -19.096
  -1.864        -19.097
  -1.862        -19.098
  -1.860        -19.099
  -1.858        -19.100
  -1.856        -19.100
  -1.853        -19.101
  -1.851        -19.102
  -1.849        -19.103
  -1.847        -19.104
  -1.845        -19.105
  -1.843        -19.106
  -1.841        -19.106
  -1.838        -19.107
  -1.836        -19.108
  -1.834        -19.109
  -1.832        -19.110
  -1.830        -19.111
  -1.828        -19.111
  -1.825        -19.112
  -1.823        -19.113
  -1.821        -19.114
  -1.819        -19.115
  -1.817        -19.116
  -1.815        -19.117
  -1.812        -19.118
  -1.810        -19.119
  -1.808        -19.119
  -1.806        -19.120
  -1.804        -19.121
  -1.801        -19.122
  -1.799        -19.123
  -1.797        -19.124
  -1.795        -19.124
  -1.793        -19.125
  -1.791        -19.126
  -1.788        -19.127
  -1.786        -19.128
  -1.784        -19.129
  -1.782        -19.130
  -1.780        -19.130
  -1.777        -19.131
  -1.775        -19.132
  -1.773        -19.133
  -1.771        -19.134
  -1.769        -19.135
  -1.767        -19.136
  -1.764        -19.136
  -1.763        -19.137
  -1.760        -19.138
  -1.758        -19.139
  -1.756        -19.140
  -1.754        -19.141
  -1.752        -19.142
  -1.749        -19.142
  -1.747        -19.143
  -1.745        -19.144
  -1.743        -19.145
  -1.741        -19.146
  -1.739        -19.146
  -1.736        -19.148
  -1.734        -19.148
  -1.732        -19.149
  -1.730        -19.150
  -1.728        -19.151
  -1.726        -19.152
  -1.723        -19.152
  -1.721        -19.154
  -1.719        -19.154
  -1.717        -19.155
  -1.715        -19.156
  -1.713        -19.157
  -1.710        -19.158
  -1.708        -19.159
  -1.706        -19.160
  -1.704        -19.160
  -1.702        -19.161
  -1.699        -19.162
  -1.697        -19.163
  -1.695        -19.164
  -1.693        -19.165
  -1.691        -19.166
  -1.689        -19.166
  -1.686        -19.167
  -1.684        -19.168
  -1.682        -19.169
  -1.680        -19.170
  -1.678        -19.170
  -1.675        -19.172
  -1.673        -19.172
  -1.671        -19.173
  -1.669        -19.174
  -1.667        -19.175
  -1.665        -19.176
  -1.663        -19.176
  -1.660        -19.177
  -1.658        -19.178
  -1.656        -19.179
  -1.654        -19.180
  -1.652        -19.181
  -1.650        -19.182
  -1.647        -19.183
  -1.645        -19.183
  -1.643        -19.184
  -1.641        -19.185
  -1.639        -19.186
  -1.637        -19.187
  -1.634        -19.187
  -1.632        -19.188
  -1.630        -19.189
  -1.628        -19.190
  -1.626        -19.191
  -1.623        -19.192
  -1.621        -19.193
  -1.619        -19.193
  -1.617        -19.194
  -1.615        -19.195
  -1.613        -19.196
  -1.611        -19.197
  -1.608        -19.198
  -1.606        -19.199
  -1.604        -19.200
  -1.602        -19.200
  -1.600        -19.201
  -1.597        -19.202
  -1.595        -19.203
  -1.593        -19.204
  -1.591        -19.205
  -1.589        -19.205
  -1.587        -19.206
  -1.584        -19.207
  -1.582        -19.208
  -1.580        -19.209
  -1.578        -19.210
  -1.576        -19.210
  -1.573        -19.211
  -1.571        -19.212
  -1.569        -19.213
  -1.567        -19.214
  -1.565        -19.215
  -1.563        -19.216
  -1.561        -19.216
  -1.558        -19.217
  -1.556        -19.218
  -1.554        -19.219
  -1.552        -19.220
  -1.550        -19.221
  -1.547        -19.222
  -1.545        -19.222
  -1.543        -19.223
  -1.541        -19.224
  -1.539        -19.225
  -1.537        -19.226
  -1.534        -19.227
  -1.532        -19.228
  -1.530        -19.229
  -1.528        -19.229
  -1.526        -19.230
  -1.524        -19.231
  -1.522        -19.232
  -1.519        -19.233
  -1.517        -19.234
  -1.515        -19.234
  -1.513        -19.235
  -1.511        -19.236
  -1.508        -19.237
  -1.506        -19.238
  -1.504        -19.239
  -1.502        -19.240
  -1.500        -19.241
  -1.498        -19.241
  -1.495        -19.242
  -1.493        -19.243
  -1.491        -19.244
  -1.489        -19.245
  -1.487        -19.246
  -1.484        -19.247
  -1.482        -19.247
  -1.480        -19.248
  -1.478        -19.249
  -1.476        -19.250
  -1.474        -19.251
  -1.472        -19.252
  -1.469        -19.253
  -1.467        -19.254
  -1.465        -19.255
  -1.463        -19.255
  -1.461        -19.256
  -1.458        -19.257
  -1.456        -19.258
  -1.454        -19.259
  -1.452        -19.260
  -1.450        -19.261
  -1.448        -19.261
  -1.445        -19.262
  -1.443        -19.263
  -1.441        -19.264
  -1.439        -19.265
  -1.437        -19.266
  -1.435        -19.267
  -1.432        -19.268
  -1.430        -19.269
  -1.428        -19.270
  -1.426        -19.270
  -1.424        -19.271
  -1.422        -19.272
  -1.419        -19.273
  -1.417        -19.274
  -1.415        -19.275
  -1.413        -19.276
  -1.411        -19.277
  -1.409        -19.278
  -1.406        -19.279
  -1.404        -19.280
  -1.402        -19.281
  -1.400        -19.281
  -1.398        -19.283
  -1.396        -19.283
  -1.393        -19.284
  -1.391        -19.285
  -1.389        -19.286
  -1.387        -19.287
  -1.385        -19.288
  -1.383        -19.289
  -1.380        -19.290
  -1.378        -19.291
  -1.376        -19.292
  -1.374        -19.293
  -1.372        -19.294
  -1.370        -19.295
  -1.367        -19.296
  -1.365        -19.297
  -1.363        -19.298
  -1.361        -19.299
  -1.359        -19.300
  -1.356        -19.301
  -1.354        -19.302
  -1.352        -19.303
  -1.350        -19.304
  -1.348        -19.305
  -1.346        -19.306
  -1.343        -19.307
  -1.341        -19.308
  -1.339        -19.309
  -1.337        -19.310
  -1.335        -19.311
  -1.333        -19.312
  -1.330        -19.313
  -1.328        -19.314
  -1.326        -19.315
  -1.324        -19.316
  -1.322        -19.317
  -1.320        -19.318
  -1.317        -19.319
  -1.315        -19.321
  -1.313        -19.322
  -1.311        -19.323
  -1.309        -19.324
  -1.307        -19.325
  -1.304        -19.326
  -1.302        -19.327
  -1.300        -19.328
  -1.298        -19.329
  -1.296        -19.330
  -1.293        -19.332
  -1.291        -19.333
  -1.289        -19.334
  -1.287        -19.335
  -1.285        -19.336
  -1.283        -19.337
  -1.280        -19.338
  -1.278        -19.340
  -1.276        -19.341
  -1.274        -19.342
  -1.272        -19.343
  -1.270        -19.344
  -1.267        -19.346
  -1.265        -19.347
  -1.263        -19.348
  -1.261        -19.349
  -1.259        -19.351
  -1.257        -19.352
  -1.254        -19.353
  -1.252        -19.354
  -1.250        -19.356
  -1.248        -19.357
  -1.246        -19.358
  -1.243        -19.360
  -1.241        -19.361
  -1.239        -19.362
  -1.237        -19.363
  -1.235        -19.365
  -1.233        -19.366
  -1.231        -19.367
  -1.228        -19.369
  -1.226        -19.370
  -1.224        -19.372
  -1.222        -19.373
  -1.220        -19.374
  -1.217        -19.376
  -1.215        -19.377
  -1.213        -19.379
  -1.211        -19.380
  -1.209        -19.381
  -1.207        -19.383
  -1.204        -19.384
  -1.202        -19.386
  -1.200        -19.387
  -1.198        -19.389
  -1.196        -19.390
  -1.194        -19.392
  -1.191        -19.393
  -1.189        -19.395
  -1.187        -19.396
  -1.185        -19.398
  -1.183        -19.399
  -1.181        -19.401
  -1.178        -19.402
  -1.176        -19.404
  -1.174        -19.405
  -1.172        -19.407
  -1.170        -19.409
  -1.168        -19.410
  -1.165        -19.412
  -1.163        -19.414
  -1.161        -19.415
  -1.159        -19.417
  -1.157        -19.418
  -1.155        -19.420
  -1.152        -19.422
  -1.150        -19.424
  -1.148        -19.425
  -1.146        -19.427
  -1.144        -19.429
  -1.142        -19.430
  -1.139        -19.432
  -1.137        -19.434
  -1.135        -19.435
  -1.133        -19.437
  -1.131        -19.439
  -1.129        -19.441
  -1.126        -19.442
  -1.124        -19.444
  -1.122        -19.446
  -1.120        -19.448
  -1.118        -19.449
  -1.115        -19.451
  -1.113        -19.453
  -1.111        -19.455
  -1.109        -19.457
  -1.107        -19.459
  -1.105        -19.460
  -1.102        -19.462
  -1.100        -19.464
  -1.098        -19.466
  -1.096        -19.468
  -1.094        -19.469
  -1.092        -19.471
  -1.089        -19.473
  -1.087        -19.475
  -1.085        -19.477
  -1.083        -19.479
  -1.081        -19.481
  -1.079        -19.482
  -1.076        -19.484
  -1.074        -19.486
  -1.072        -19.488
  -1.070        -19.490
  -1.068        -19.492
  -1.066        -19.493
  -1.063        -19.495
  -1.061        -19.497
  -1.059        -19.499
  -1.057        -19.501
  -1.055        -19.503
  -1.052        -19.504
  -1.050        -19.506
  -1.048        -19.508
  -1.046        -19.510
  -1.044        -19.512
  -1.042        -19.513
  -1.039        -19.515
  -1.037        -19.517
  -1.035        -19.519
  -1.033        -19.521
  -1.031        -19.523
  -1.029        -19.524
  -1.026        -19.526
  -1.024        -19.528
  -1.022        -19.530
  -1.020        -19.531
  -1.018        -19.533
  -1.016        -19.535
  -1.013        -19.537
  -1.011        -19.539
  -1.009        -19.540
  -1.007        -19.542
  -1.005        -19.544
  -1.003        -19.545
  -1.000        -19.547
  -0.998        -19.549
  -0.996        -19.550
  -0.994        -19.552
  -0.992        -19.554
  -0.990        -19.556
  -0.987        -19.557
  -0.985        -19.559
  -0.983        -19.560
  -0.981        -19.562
  -0.979        -19.563
  -0.977        -19.565
  -0.974        -19.567
  -0.972        -19.568
  -0.970        -19.570
  -0.968        -19.571
  -0.966        -19.573
  -0.963        -19.574
  -0.961        -19.576
  -0.959        -19.577
  -0.957        -19.579
  -0.955        -19.580
  -0.953        -19.581
  -0.950        -19.583
  -0.948        -19.584
  -0.946        -19.586
  -0.944        -19.587
  -0.942        -19.588
  -0.940        -19.589
  -0.937        -19.591
  -0.935        -19.592
  -0.933        -19.593
  -0.931        -19.594
  -0.929        -19.596
  -0.927        -19.597
  -0.924        -19.598
  -0.922        -19.599
  -0.920        -19.600
  -0.918        -19.601
  -0.916        -19.602
  -0.914        -19.604
  -0.911        -19.605
  -0.909        -19.606
  -0.907        -19.607
  -0.905        -19.608
  -0.903        -19.609
  -0.900        -19.610
  -0.898        -19.611
  -0.896        -19.612
  -0.894        -19.613
  -0.892        -19.613
  -0.890        -19.614
  -0.887        -19.615
  -0.885        -19.616
  -0.883        -19.617
  -0.881        -19.618
  -0.879        -19.619
  -0.877        -19.620
  -0.874        -19.620
  -0.872        -19.621
  -0.870        -19.622
  -0.868        -19.623
  -0.866        -19.624
  -0.864        -19.624
  -0.862        -19.625
  -0.859        -19.626
  -0.857        -19.626
  -0.855        -19.627
  -0.853        -19.628
  -0.851        -19.628
  -0.848        -19.629
  -0.846        -19.630
  -0.844        -19.631
  -0.842        -19.631
  -0.840        -19.632
  -0.838        -19.632
  -0.835        -19.632
  -0.833        -19.633
  -0.831        -19.633
  -0.829        -19.634
  -0.827        -19.634
  -0.825        -19.635
  -0.822        -19.635
  -0.820        -19.636
  -0.818        -19.636
  -0.816        -19.636
  -0.814        -19.637
  -0.812        -19.637
  -0.809        -19.637
  -0.807        -19.638
  -0.805        -19.638
  -0.803        -19.638
  -0.801        -19.639
  -0.799        -19.639
  -0.796        -19.639
  -0.794        -19.639
  -0.792        -19.640
  -0.790        -19.640
  -0.788        -19.640
  -0.785        -19.640
  -0.783        -19.641
  -0.781        -19.640
  -0.779        -19.641
  -0.777        -19.641
  -0.774        -19.641
  -0.772        -19.641
  -0.770        -19.641
  -0.768        -19.641
  -0.766        -19.641
  -0.764        -19.641
  -0.762        -19.641
  -0.759        -19.641
  -0.757        -19.641
  -0.755        -19.641
  -0.753        -19.641
  -0.751        -19.641
  -0.748        -19.641
  -0.746        -19.641
  -0.744        -19.640
  -0.742        -19.641
  -0.740        -19.640
  -0.738        -19.640
  -0.736        -19.640
  -0.733        -19.640
  -0.731        -19.640
  -0.729        -19.639
  -0.727        -19.639
  -0.725        -19.639
  -0.723        -19.639
  -0.720        -19.639
  -0.718        -19.638
  -0.716        -19.638
  -0.714        -19.638
  -0.712        -19.637
  -0.709        -19.637
  -0.707        -19.636
  -0.705        -19.636
  -0.703        -19.636
  -0.701        -19.635
  -0.699        -19.635
  -0.697        -19.634
  -0.694        -19.634
  -0.692        -19.633
  -0.690        -19.633
  -0.688        -19.633
  -0.685        -19.632
  -0.683        -19.632
  -0.681        -19.631
  -0.679        -19.631
  -0.677        -19.630
  -0.675        -19.630
  -0.673        -19.629
  -0.670        -19.628
  -0.668        -19.628
  -0.666        -19.627
  -0.664        -19.627
  -0.662        -19.626
  -0.659        -19.625
  -0.657        -19.625
  -0.655        -19.624
  -0.653        -19.623
  -0.651        -19.623
  -0.649        -19.622
  -0.647        -19.621
  -0.644        -19.621
  -0.642        -19.620
  -0.640        -19.619
  -0.638        -19.618
  -0.636        -19.618
  -0.633        -19.617
  -0.631        -19.616
  -0.629        -19.616
  -0.627        -19.615
  -0.625        -19.614
  -0.623        -19.613
  -0.621        -19.612
  -0.618        -19.612
  -0.616        -19.611
  -0.614        -19.610
  -0.612        -19.609
  -0.610        -19.608
  -0.608        -19.607
  -0.605        -19.606
  -0.603        -19.606
  -0.601        -19.605
  -0.599        -19.604
  -0.596        -19.603
  -0.594        -19.602
  -0.592        -19.601
  -0.590        -19.600
  -0.588        -19.599
  -0.586        -19.598
  -0.584        -19.597
  -0.581        -19.596
  -0.579        -19.595
  -0.577        -19.594
  -0.575        -19.593
  -0.573        -19.592
  -0.571        -19.591
  -0.568        -19.590
  -0.566        -19.590
  -0.564        -19.589
  -0.562        -19.588
  -0.560        -19.587
  -0.557        -19.586
  -0.555        -19.585
  -0.553        -19.584
  -0.551        -19.583
  -0.549        -19.582
  -0.547        -19.581
  -0.544        -19.580
  -0.542        -19.579
  -0.540        -19.578
  -0.538        -19.577
  -0.536        -19.576
  -0.534        -19.575
  -0.531        -19.574
  -0.529        -19.573
  -0.527        -19.572
  -0.525        -19.571
  -0.523        -19.570
  -0.521        -19.569
  -0.518        -19.568
  -0.516        -19.567
  -0.514        -19.566
  -0.512        -19.565
  -0.510        -19.564
  -0.507        -19.563
  -0.505        -19.563
  -0.503        -19.562
  -0.501        -19.560
  -0.499        -19.559
  -0.497        -19.558
  -0.495        -19.557
  -0.492        -19.556
  -0.490        -19.555
  -0.488        -19.554
  -0.486        -19.553
  -0.484        -19.553
  -0.482        -19.551
  -0.479        -19.550
  -0.477        -19.549
  -0.475        -19.548
  -0.473        -19.547
  -0.471        -19.546
  -0.468        -19.545
  -0.466        -19.544
  -0.464        -19.543
  -0.462        -19.542
  -0.460        -19.541
  -0.458        -19.540
  -0.455        -19.539
  -0.453        -19.538
  -0.451        -19.537
  -0.449        -19.536
  -0.447        -19.535
  -0.445        -19.534
  -0.442        -19.533
  -0.440        -19.532
  -0.438        -19.531
  -0.436        -19.530
  -0.434        -19.529
  -0.432        -19.528
  -0.429        -19.527
  -0.427        -19.526
  -0.425        -19.525
  -0.423        -19.524
  -0.421        -19.523
  -0.419        -19.522
  -0.416        -19.521
  -0.414        -19.520
  -0.412        -19.519
  -0.410        -19.518
  -0.408        -19.517
  -0.405        -19.516
  -0.403        -19.515
  -0.401        -19.514
  -0.399        -19.513
  -0.397        -19.512
  -0.395        -19.511
  -0.392        -19.510
  -0.390        -19.509
  -0.388        -19.508
  -0.386        -19.507
  -0.384        -19.506
  -0.382        -19.505
  -0.379        -19.504
  -0.377        -19.503
  -0.375        -19.502
  -0.373        -19.501
  -0.371        -19.500
  -0.369        -19.499
  -0.366        -19.498
  -0.364        -19.497
  -0.362        -19.497
  -0.360        -19.495
  -0.358        -19.494
  -0.356        -19.493
  -0.353        -19.493
  -0.351        -19.492
  -0.349        -19.491
  -0.347        -19.490
  -0.345        -19.489
  -0.343        -19.488
  -0.340        -19.487
  -0.338        -19.486
  -0.336        -19.485
  -0.334        -19.484
  -0.332        -19.483
  -0.330        -19.482
  -0.327        -19.481
  -0.325        -19.480
  -0.323        -19.479
  -0.321        -19.479
  -0.319        -19.478
  -0.316        -19.477
  -0.314        -19.476
  -0.312        -19.475
  -0.310        -19.474
  -0.308        -19.473
  -0.306        -19.473
  -0.303        -19.472
  -0.301        -19.471
  -0.299        -19.470
  -0.297        -19.470
  -0.295        -19.469
  -0.293        -19.468
  -0.290        -19.468
  -0.288        -19.467
  -0.286        -19.467
  -0.284        -19.466
  -0.282        -19.465
  -0.280        -19.465
  -0.277        -19.464
  -0.275        -19.464
  -0.273        -19.464
  -0.271        -19.463
  -0.269        -19.463
  -0.267        -19.463
  -0.264        -19.462
  -0.262        -19.462
  -0.260        -19.461
  -0.258        -19.461
  -0.256        -19.461
  -0.253        -19.461
  -0.251        -19.460
  -0.249        -19.460
  -0.247        -19.460
  -0.245        -19.460
  -0.243        -19.460
  -0.241        -19.459
  -0.238        -19.459
  -0.236        -19.459
  -0.234        -19.459
  -0.232        -19.459
  -0.230        -19.459
  -0.227        -19.459
  -0.225        -19.458
  -0.223        -19.458
  -0.221        -19.458
  -0.219        -19.458
  -0.217        -19.458
  -0.214        -19.458
  -0.212        -19.458
  -0.210        -19.458
  -0.208        -19.458
  -0.206        -19.458
  -0.204        -19.458
  -0.201        -19.458
  -0.199        -19.458
  -0.197        -19.458
  -0.195        -19.458
  -0.193        -19.459
  -0.191        -19.459
  -0.188        -19.459
  -0.186        -19.459
  -0.184        -19.459
  -0.182        -19.459
  -0.180        -19.459
  -0.178        -19.460
  -0.175        -19.460
  -0.173        -19.460
  -0.171        -19.460
  -0.169        -19.461
  -0.167        -19.461
  -0.164        -19.461
  -0.162        -19.461
  -0.160        -19.462
  -0.158        -19.462
  -0.156        -19.462
  -0.154        -19.463
  -0.151        -19.463
  -0.149        -19.464
  -0.147        -19.464
  -0.145        -19.464
  -0.143        -19.465
  -0.141        -19.465
  -0.138        -19.466
  -0.136        -19.466
  -0.134        -19.466
  -0.132        -19.467
  -0.130        -19.467
  -0.128        -19.468
  -0.125        -19.468
  -0.123        -19.468
  -0.121        -19.469
  -0.119        -19.469
  -0.117        -19.470
  -0.115        -19.470
  -0.112        -19.471
  -0.110        -19.471
  -0.108        -19.471
  -0.106        -19.472
  -0.104        -19.472
  -0.102        -19.472
  -0.099        -19.473
  -0.097        -19.473
  -0.095        -19.473
  -0.093        -19.474
  -0.091        -19.474
  -0.089        -19.474
  -0.086        -19.474
  -0.084        -19.475
  -0.082        -19.475
  -0.080        -19.475
  -0.078        -19.475
  -0.075        -19.476
  -0.073        -19.476
  -0.071        -19.476
  -0.069        -19.477
  -0.067        -19.477
  -0.065        -19.477
  -0.063        -19.477
  -0.060        -19.478
  -0.058        -19.478
  -0.056        -19.478
  -0.054        -19.478
  -0.052        -19.479
  -0.049        -19.479
  -0.047        -19.479
  -0.045        -19.480
  -0.043        -19.480
  -0.041        -19.480
  -0.039        -19.481
  -0.036        -19.481
  -0.034        -19.481
  -0.032        -19.481
  -0.030        -19.482
  -0.028        -19.482
  -0.026        -19.482
  -0.023        -19.483
  -0.021        -19.483
  -0.019        -19.483
  -0.017        -19.484
  -0.015        -19.484
  -0.013        -19.484
  -0.010        -19.485
  -0.008        -19.485
  -0.006        -19.485
  -0.004        -19.485
  -0.002        -19.486
   0.000        -19.486
   0.003        -19.486
   0.005        -19.487
   0.007        -19.487
   0.009        -19.487
   0.011        -19.488
   0.013        -19.488
   0.016        -19.488
   0.018        -19.489
   0.020        -19.489
   0.022        -19.489
   0.024        -19.490
   0.027        -19.490
   0.029        -19.490
   0.031        -19.491
   0.033        -19.491
   0.035        -19.491
   0.037        -19.491
   0.040        -19.492
   0.042        -19.492
   0.044        -19.493
   0.046        -19.493
   0.048        -19.493
   0.050        -19.494
   0.053        -19.494
   0.055        -19.494
   0.057        -19.495
   0.059        -19.495
   0.061        -19.496
   0.063        -19.496
   0.066        -19.496
   0.068        -19.497
   0.070        -19.497
   0.072        -19.498
   0.074        -19.498
   0.076        -19.498
   0.079        -19.498
   0.081        -19.499
   0.083        -19.499
   0.085        -19.499
   0.087        -19.500
   0.089        -19.500
   0.092        -19.500
   0.094        -19.501
   0.096        -19.501
   0.098        -19.501
   0.100        -19.502
   0.103        -19.502
   0.105        -19.502
   0.107        -19.503
   0.109        -19.503
   0.111        -19.504
   0.113        -19.504
   0.116        -19.504
   0.118        -19.505
   0.120        -19.505
   0.122        -19.505
   0.124        -19.506
   0.126        -19.506
   0.128        -19.506
   0.131        -19.507
   0.133        -19.507
   0.135        -19.508
   0.137        -19.508
   0.139        -19.508
   0.142        -19.509
   0.144        -19.509
   0.146        -19.509
   0.148        -19.510
   0.150        -19.510
   0.153        -19.511
   0.155        -19.511
   0.157        -19.512
   0.159        -19.512
   0.161        -19.512
   0.163        -19.512
   0.165        -19.513
   0.168        -19.513
   0.170        -19.513
   0.172        -19.514
   0.174        -19.515
   0.176        -19.515
   0.178        -19.515
   0.181        -19.516
   0.183        -19.516
   0.185        -19.516
   0.187        -19.517
   0.189        -19.517
   0.192        -19.518
   0.194        -19.518
   0.196        -19.519
   0.198        -19.519
   0.200        -19.520
   0.202        -19.520
   0.205        -19.520
   0.207        -19.521
   0.209        -19.521
   0.211        -19.522
   0.213        -19.522
   0.215        -19.523
   0.218        -19.523
   0.220        -19.524
   0.222        -19.524
   0.224        -19.525
   0.226        -19.525
   0.229        -19.526
   0.231        -19.526
   0.233        -19.527
   0.235        -19.527
   0.237        -19.528
   0.239        -19.529
   0.241        -19.529
   0.244        -19.530
   0.246        -19.530
   0.248        -19.531
   0.250        -19.531
   0.252        -19.532
   0.254        -19.533
   0.257        -19.533
   0.259        -19.534
   0.261        -19.534
   0.263        -19.535
   0.265        -19.536
   0.267        -19.536
   0.270        -19.537
   0.272        -19.538
   0.274        -19.538
   0.276        -19.539
   0.278        -19.539
   0.281        -19.540
   0.283        -19.541
   0.285        -19.541
   0.287        -19.542
   0.289        -19.543
   0.291        -19.544
   0.293        -19.544
   0.296        -19.545
   0.298        -19.546
   0.300        -19.546
   0.302        -19.547
   0.305        -19.548
   0.307        -19.549
   0.309        -19.550
   0.311        -19.551
   0.313        -19.551
   0.315        -19.552
   0.318        -19.553
   0.320        -19.554
   0.322        -19.555
   0.324        -19.556
   0.326        -19.557
   0.328        -19.558
   0.330        -19.558
   0.333        -19.560
   0.335        -19.561
   0.337        -19.562
   0.339        -19.563
   0.341        -19.564
   0.344        -19.565
   0.346        -19.566
   0.348        -19.567
   0.350        -19.568
   0.352        -19.570
   0.354        -19.571
   0.356        -19.572
   0.359        -19.573
   0.361        -19.574
   0.363        -19.576
   0.365        -19.577
   0.367        -19.578
   0.369        -19.579
   0.372        -19.580
   0.374        -19.582
   0.376        -19.583
   0.378        -19.584
   0.380        -19.585
   0.383        -19.586
   0.385        -19.588
   0.387        -19.589
   0.389        -19.590
   0.391        -19.592
   0.393        -19.593
   0.396        -19.595
   0.398        -19.596
   0.400        -19.597
   0.402        -19.599
   0.404        -19.600
   0.406        -19.602
   0.409        -19.603
   0.411        -19.605
   0.413        -19.606
   0.415        -19.608
   0.417        -19.609
   0.420        -19.611
   0.422        -19.612
   0.424        -19.614
   0.426        -19.615
   0.428        -19.617
   0.430        -19.619
   0.432        -19.620
   0.435        -19.622
   0.437        -19.623
   0.439        -19.625
   0.441        -19.627
   0.443        -19.628
   0.446        -19.630
   0.448        -19.632
   0.450        -19.633
   0.452        -19.635
   0.454        -19.637
   0.456        -19.639
   0.459        -19.640
   0.461        -19.642
   0.463        -19.644
   0.465        -19.646
   0.467        -19.647
   0.469        -19.649
   0.472        -19.651
   0.474        -19.652
   0.476        -19.654
   0.478        -19.655
   0.480        -19.657
   0.482        -19.659
   0.485        -19.660
   0.487        -19.662
   0.489        -19.663
   0.491        -19.664
   0.493        -19.665
   0.495        -19.666
   0.498        -19.666
   0.500        -19.667
   0.502        -19.668
   0.504        -19.669
   0.506        -19.669
   0.510        -19.671
   0.512        -19.671
   0.513        -19.671
   0.515        -19.671
   0.517        -19.672
   0.519        -19.672
   0.522        -19.672
   0.524        -19.672
   0.526        -19.673
   0.528        -19.673
   0.530        -19.673
   0.532        -19.673
   0.535        -19.673
   0.537        -19.674
   0.539        -19.674
   0.541        -19.674
   0.543        -19.674
   0.545        -19.675
   0.548        -19.675
   0.550        -19.675
   0.552        -19.675
   0.554        -19.676
   0.556        -19.676
   0.558        -19.677
   0.561        -19.677
   0.563        -19.677
   0.565        -19.678
   0.567        -19.678
   0.569        -19.678
   0.572        -19.679
   0.574        -19.679
   0.576        -19.679
   0.578        -19.680
   0.580        -19.680
   0.582        -19.681
   0.585        -19.681
   0.587        -19.681
   0.589        -19.682
   0.591        -19.682
   0.593        -19.683
   0.595        -19.683
   0.598        -19.683
   0.600        -19.684
   0.602        -19.684
   0.604        -19.685
   0.606        -19.685
   0.608        -19.686
   0.611        -19.686
   0.613        -19.687
   0.615        -19.687
   0.617        -19.688
   0.619        -19.688
   0.621        -19.689
   0.624        -19.689
   0.626        -19.690
   0.628        -19.690
   0.630        -19.691
   0.632        -19.691
   0.634        -19.692
   0.637        -19.692
   0.639        -19.693
   0.641        -19.693
   0.643        -19.694
   0.645        -19.695
   0.647        -19.695
   0.650        -19.696
   0.652        -19.696
   0.654        -19.697
   0.656        -19.697
   0.658        -19.698
   0.660        -19.699
   0.663        -19.699
   0.665        -19.700
   0.667        -19.701
   0.669        -19.701
   0.671        -19.702
   0.673        -19.703
   0.676        -19.703
   0.678        -19.704
   0.680        -19.705
   0.682        -19.706
   0.684        -19.706
   0.687        -19.707
   0.689        -19.708
   0.691        -19.709
   0.693        -19.709
   0.695        -19.710
   0.697        -19.711
   0.700        -19.712
   0.702        -19.713
   0.704        -19.714
   0.706        -19.715
   0.708        -19.716
   0.710        -19.717
   0.713        -19.718
   0.715        -19.719
   0.717        -19.721
   0.719        -19.722
   0.721        -19.723
   0.723        -19.724
   0.726        -19.725
   0.728        -19.727
   0.730        -19.728
   0.732        -19.729
   0.734        -19.731
   0.736        -19.732
   0.739        -19.733
   0.741        -19.735
   0.743        -19.736
   0.745        -19.738
   0.747        -19.739
   0.750        -19.740
   0.752        -19.742
   0.754        -19.743
   0.756        -19.745
   0.758        -19.746
   0.760        -19.748
   0.762        -19.749
   0.765        -19.751
   0.767        -19.753
   0.769        -19.754
   0.771        -19.756
   0.773        -19.757
   0.776        -19.759
   0.778        -19.761
   0.780        -19.762
   0.782        -19.764
   0.784        -19.766
   0.786        -19.768
   0.789        -19.770
   0.791        -19.772
   0.793        -19.774
   0.795        -19.776
   0.797        -19.778
   0.799        -19.780
   0.802        -19.783
   0.804        -19.785
   0.806        -19.787
   0.808        -19.790
   0.810        -19.792
   0.812        -19.794
   0.815        -19.797
   0.817        -19.799
   0.819        -19.802
   0.821        -19.804
   0.823        -19.807
   0.825        -19.809
   0.828        -19.812
   0.830        -19.815
   0.832        -19.818
   0.834        -19.820
   0.836        -19.823
   0.838        -19.826
   0.841        -19.829
   0.843        -19.832
   0.845        -19.835
   0.847        -19.838
   0.849        -19.841
   0.852        -19.844
   0.854        -19.847
   0.856        -19.850
   0.858        -19.853
   0.860        -19.856
   0.862        -19.859
   0.865        -19.862
   0.867        -19.865
   0.869        -19.869
   0.871        -19.872
   0.873        -19.875
   0.875        -19.879
   0.878        -19.882
   0.880        -19.885
   0.882        -19.889
   0.884        -19.892
   0.886        -19.896
   0.888        -19.900
   0.891        -19.904
   0.893        -19.908
   0.895        -19.912
   0.897        -19.916
   0.899        -19.920
   0.901        -19.924
   0.904        -19.928
   0.906        -19.932
   0.908        -19.937
   0.910        -19.942
   0.912        -19.947
   0.915        -19.951
   0.917        -19.956
   0.919        -19.961
   0.921        -19.966
   0.923        -19.970
   0.925        -19.975
   0.928        -19.981
   0.930        -19.986
   0.932        -19.992
   0.934        -19.998
   0.936        -20.003
   0.938        -20.009
   0.941        -20.015
   0.943        -20.021
   0.945        -20.026
   0.947        -20.032
   0.949        -20.039
   0.951        -20.047
   0.954        -20.054
   0.956        -20.061
   0.958        -20.069
   0.960        -20.076
   0.962        -20.083
   0.964        -20.091
   0.967        -20.098
   0.969        -20.105
   0.971        -20.112
   0.973        -20.118
   0.975        -20.125
   0.977        -20.131
   0.980        -20.138
   0.982        -20.144
   0.984        -20.151
   0.986        -20.157
   0.988        -20.165
   0.990        -20.173
   0.993        -20.181
   0.995        -20.188
   0.997        -20.196
   0.999        -20.203
   1.001        -20.211
   1.004        -20.218
   1.006        -20.226
   1.008        -20.234
   1.010        -20.243
   1.012        -20.255
   1.014        -20.268
   1.017        -20.280
   1.019        -20.293
   1.021        -20.306
   1.023        -20.318
   1.025        -20.331
   1.027        -20.344
   1.030        -20.357
   1.032        -20.372
   1.034        -20.390
   1.036        -20.407
   1.038        -20.425
   1.040        -20.443
   1.043        -20.460
   1.045        -20.478
   1.047        -20.495
   1.049        -20.513
   1.051        -20.532
   1.053        -20.558
   1.056        -20.584
   1.058        -20.611
   1.060        -20.638
   1.062        -20.665
   1.064        -20.691
   1.066        -20.718
   1.069        -20.745
   1.071        -20.772
   1.073        -20.810
   1.075        -20.861
   1.077        -20.911
   1.079        -20.961
   1.082        -21.011
   1.084        -21.061
   1.086        -21.111
   1.088        -21.162
   1.090        -21.212
   1.093        -21.261
   1.095        -21.298
   1.097        -21.332
   1.099        -21.366
   1.101        -21.401
   1.103        -21.435
   1.106        -21.469
   1.108        -21.503
   1.110        -21.537
   1.112        -21.576
   1.114        -21.597
   1.117        -21.600
   1.119        -21.603
   1.121        -21.605
   1.123        -21.608
   1.125        -21.611
   1.127        -21.614
   1.129        -21.617
   1.131        -21.620
   1.134        -21.623
   1.136        -21.625
   1.138        -21.628
   1.140        -21.631
   1.143        -21.634
   1.145        -21.636
   1.147        -21.639
   1.149        -21.642
   1.151        -21.644
   1.153        -21.647
   1.155        -21.650
   1.158        -21.653
   1.160        -21.655
   1.162        -21.658
   1.164        -21.661
   1.166        -21.664
   1.169        -21.667
   1.171        -21.669
   1.173        -21.672
   1.175        -21.675
   1.177        -21.678
   1.180        -21.681
   1.181        -21.683
   1.184        -21.686
   1.186        -21.689
   1.188        -21.692
   1.190        -21.695
   1.192        -21.698
   1.195        -21.701
   1.197        -21.704
   1.199        -21.707
   1.201        -21.710
   1.203        -21.713
   1.205        -21.716
   1.208        -21.719
   1.210        -21.722
   1.212        -21.725
   1.214        -21.728
   1.216        -21.731
   1.218        -21.734
   1.220        -21.737
   1.223        -21.741
   1.225        -21.744
   1.227        -21.747
   1.229        -21.750
   1.232        -21.753
   1.234        -21.756
   1.236        -21.759
   1.238        -21.763
   1.240        -21.765
   1.242        -21.769
   1.245        -21.772
   1.247        -21.775
   1.249        -21.778
   1.251        -21.781
   1.253        -21.785
   1.255        -21.788
   1.258        -21.791
   1.260        -21.794
   1.262        -21.798
   1.264        -21.801
   1.266        -21.805
   1.268        -21.808
   1.270        -21.811
   1.273        -21.815
   1.275        -21.818
   1.277        -21.822
   1.279        -21.825
   1.281        -21.829
   1.284        -21.832
   1.286        -21.836
   1.288        -21.840
   1.290        -21.843
   1.292        -21.847
   1.294        -21.850
   1.297        -21.854
   1.299        -21.857
   1.301        -21.861
   1.303        -21.865
   1.305        -21.868
   1.307        -21.872
   1.310        -21.876
   1.312        -21.880
   1.314        -21.883
   1.316        -21.887
   1.318        -21.891
   1.320        -21.895
   1.323        -21.898
   1.325        -21.902
   1.327        -21.906
   1.329        -21.909
   1.331        -21.913
   1.334        -21.917
   1.336        -21.921
   1.338        -21.925
   1.340        -21.928
   1.342        -21.932
   1.344        -21.937
   1.346        -21.940
   1.349        -21.945
   1.351        -21.949
   1.353        -21.953
   1.355        -21.957
   1.357        -21.961
   1.359        -21.965
   1.362        -21.969
   1.364        -21.973
   1.366        -21.977
   1.368        -21.981
   1.370        -21.984
   1.373        -21.988
   1.375        -21.992
   1.377        -21.996
   1.379        -22.000
   1.381        -22.004
   1.383        -22.007
   1.386        -22.011
   1.388        -22.014
   1.390        -22.018
   1.392        -22.021
   1.394        -22.025
   1.397        -22.028
   1.399        -22.032
   1.401        -22.035
   1.403        -22.039
   1.405        -22.042
   1.407        -22.046
   1.410        -22.050
   1.412        -22.054
   1.414        -22.058
   1.416        -22.062
   1.418        -22.066
   1.420        -22.070
   1.423        -22.073
   1.425        -22.077
   1.427        -22.081
   1.429        -22.086
   1.431        -22.090
   1.433        -22.094
   1.436        -22.098
   1.438        -22.103
   1.440        -22.107
   1.442        -22.111
   1.444        -22.115
   1.446        -22.120
   1.449        -22.124
   1.451        -22.128
   1.453        -22.133
   1.455        -22.137
   1.457        -22.142
   1.460        -22.146
   1.462        -22.150
   1.464        -22.154
   1.466        -22.159
   1.468        -22.163
   1.470        -22.168
   1.472        -22.173
   1.475        -22.177
   1.477        -22.182
   1.479        -22.187
   1.481        -22.191
   1.483        -22.196
   1.486        -22.201
   1.488        -22.205
   1.490        -22.210
   1.492        -22.215
   1.494        -22.219
   1.496        -22.224
   1.498        -22.229
   1.501        -22.234
   1.503        -22.239
   1.505        -22.243
   1.507        -22.248
   1.509        -22.253
   1.512        -22.258
   1.514        -22.263
   1.516        -22.268
   1.518        -22.273
   1.520        -22.278
   1.522        -22.284
   1.525        -22.289
   1.527        -22.294
   1.529        -22.299
   1.531        -22.304
   1.533        -22.310
   1.535        -22.315
   1.538        -22.321
   1.540        -22.326
   1.542        -22.332
   1.544        -22.337
   1.546        -22.342
   1.549        -22.348
   1.551        -22.354
   1.553        -22.360
   1.555        -22.365
   1.557        -22.371
   1.559        -22.377
   1.561        -22.383
   1.564        -22.389
   1.566        -22.395
   1.568        -22.401
   1.570        -22.407
   1.572        -22.413
   1.575        -22.420
   1.577        -22.426
   1.579        -22.433
   1.581        -22.440
   1.583        -22.446
   1.585        -22.453
   1.588        -22.460
   1.590        -22.499
   1.592        -22.573
   1.594        -22.581
   1.596        -22.588
   1.598        -22.596
   1.601        -22.603
   1.603        -22.610
   1.605        -22.618
   1.607        -22.625
   1.609        -22.633
   1.611        -22.640
   1.614        -22.648
   1.616        -22.656
   1.618        -22.665
   1.620        -22.673
   1.622        -22.681
   1.624        -22.689
   1.627        -22.697
   1.629        -22.705
   1.631        -22.714
   1.633        -22.722
   1.635        -22.731
   1.637        -22.740
   1.640        -22.748
   1.642        -22.757
   1.644        -22.766
   1.646        -22.775
   1.648        -22.784
   1.651        -22.793
   1.653        -22.801
   1.655        -22.811
   1.657        -22.820
   1.659        -22.830
   1.661        -22.840
   1.664        -22.849
   1.666        -22.859
   1.668        -22.868
   1.670        -22.878
   1.672        -22.887
   1.674        -22.897
   1.676        -22.908
   1.679        -22.918
   1.681        -22.929
   1.683        -22.940
   1.685        -22.950
   1.687        -22.961
   1.690        -22.972
   1.692        -22.982
   1.694        -22.993
   1.696        -23.005
   1.699        -23.020
   1.701        -23.033
   1.703        -23.045
   1.705        -23.056
   1.707        -23.069
   1.709        -23.082
   1.711        -23.095
   1.714        -23.109
   1.716        -23.118
   1.718        -23.137
   1.720        -23.156
   1.722        -23.180
   1.724        -23.203
   1.727        -23.226
   1.729        -23.249
   1.731        -23.273
   1.733        -23.296
   1.735        -23.319
   1.737        -23.338
   1.739        -23.350
   1.742        -23.362
   1.744        -23.373
   1.746        -23.385
   1.748        -23.396
   1.750        -23.408
   1.753        -23.419
   1.755        -23.431
   1.757        -23.442
   1.759        -23.448
   1.761        -23.453
   1.763        -23.457
   1.766        -23.462
   1.768        -23.467
   1.770        -23.471
   1.772        -23.476
   1.774        -23.480
   1.776        -23.485
   1.779        -23.489
   1.781        -23.491
   1.783        -23.492
   1.785        -23.494
   1.787        -23.496
   1.789        -23.498
   1.792        -23.500
   1.794        -23.502
   1.796        -23.503
   1.798        -23.505
   1.800        -23.507
   1.802        -23.508
   1.805        -23.509
   1.807        -23.510
   1.809        -23.511
   1.811        -23.512
   1.813        -23.513
   1.816        -23.514
   1.818        -23.515
   1.820        -23.516
   1.822        -23.517
   1.824        -23.518
   1.826        -23.519
   1.829        -23.520
   1.831        -23.521
   1.833        -23.522
   1.835        -23.523
   1.837        -23.523
   1.839        -23.524
   1.842        -23.525
   1.844        -23.526
   1.846        -23.527
   1.848        -23.528
   1.850        -23.529
   1.852        -23.530
   1.855        -23.531
   1.857        -23.532
   1.859        -23.533
   1.861        -23.534
   1.863        -23.535
   1.865        -23.536
   1.868        -23.537
   1.870        -23.538
   1.872        -23.539
   1.874        -23.540
   1.876        -23.541
   1.878        -23.542
   1.881        -23.543
   1.883        -23.544
   1.885        -23.545
   1.887        -23.546
   1.889        -23.547
   1.891        -23.549
   1.894        -23.550
   1.896        -23.551
   1.898        -23.552
   1.900        -23.553
   1.902        -23.554
   1.905        -23.555
   1.907        -23.557
   1.909        -23.558
   1.911        -23.559
   1.913        -23.560
   1.915        -23.562
   1.918        -23.563
   1.920        -23.564
   1.922        -23.565
   1.924        -23.567
   1.926        -23.568
   1.928        -23.569
   1.931        -23.570
   1.933        -23.572
   1.935        -23.573
   1.937        -23.574
   1.939        -23.576
   1.941        -23.577
   1.944        -23.578
   1.946        -23.580
   1.948        -23.581
   1.950        -23.583
   1.952        -23.584
   1.954        -23.585
   1.957        -23.587
   1.959        -23.588
   1.961        -23.590
   1.963        -23.591
   1.965        -23.593
   1.967        -23.594
   1.970        -23.596
   1.972        -23.597
   1.974        -23.599
   1.976        -23.600
   1.978        -23.602
   1.980        -23.603
   1.983        -23.604
   1.985        -23.606
   1.987        -23.607
   1.989        -23.609
   1.991        -23.611
   1.993        -23.612
   1.996        -23.614
   1.998        -23.615
   2.000        -23.617
   2.002        -23.618
   2.004        -23.620
   2.007        -23.622
   2.009        -23.623
   2.011        -23.625
   2.013        -23.627
   2.015        -23.628
   2.017        -23.630
   2.020        -23.631
   2.022        -23.633
   2.024        -23.635
   2.026        -23.636
   2.028        -23.638
   2.030        -23.640
   2.033        -23.641
   2.035        -23.643
   2.037        -23.645
   2.039        -23.646
   2.041        -23.648
   2.043        -23.650
   2.046        -23.651
   2.048        -23.653
   2.050        -23.654
   2.052        -23.656
   2.054        -23.658
   2.056        -23.659
   2.059        -23.661
   2.061        -23.663
   2.063        -23.664
   2.065        -23.666
   2.067        -23.668
   2.069        -23.669
   2.072        -23.671
   2.074        -23.673
   2.076        -23.674
   2.078        -23.676
   2.080        -23.678
   2.083        -23.679
   2.085        -23.681
   2.087        -23.682
   2.089        -23.684
   2.091        -23.686
   2.093        -23.687
   2.096        -23.689
   2.098        -23.691
   2.100        -23.692
   2.102        -23.694
   2.104        -23.695
   2.106        -23.697
   2.109        -23.698
   2.111        -23.700
   2.113        -23.702
   2.115        -23.703
   2.117        -23.705
   2.120        -23.706
   2.122        -23.708
   2.124        -23.709
   2.126        -23.711
   2.128        -23.712
   2.130        -23.714
   2.133        -23.715
   2.135        -23.717
   2.137        -23.718
   2.139        -23.720
   2.141        -23.721
   2.143        -23.723
   2.145        -23.724
   2.148        -23.726
   2.150        -23.727
   2.152        -23.728
   2.154        -23.730
   2.157        -23.731
   2.158        -23.732
   2.161        -23.734
   2.163        -23.735
   2.165        -23.737
   2.167        -23.738
   2.169        -23.739
   2.172        -23.741
   2.174        -23.742
   2.176        -23.743
   2.178        -23.745
   2.180        -23.746
   2.183        -23.747
   2.185        -23.749
   2.187        -23.750
   2.189        -23.751
   2.191        -23.752
   2.193        -23.754
   2.195        -23.755
   2.197        -23.756
   2.200        -23.757
   2.202        -23.759
   2.204        -23.760
   2.206        -23.761
   2.208        -23.762
   2.211        -23.763
   2.213        -23.765
   2.215        -23.766
   2.217        -23.767
   2.219        -23.768
   2.221        -23.769
   2.224        -23.770
   2.226        -23.771
   2.228        -23.772
   2.230        -23.774
   2.232        -23.774
   2.235        -23.776
   2.237        -23.777
   2.239        -23.778
   2.241        -23.779
   2.243        -23.780
   2.245        -23.781
   2.247        -23.782
   2.250        -23.783
   2.252        -23.784
   2.254        -23.785
   2.256        -23.786
   2.259        -23.787
   2.261        -23.788
   2.263        -23.789
   2.265        -23.790
   2.267        -23.791
   2.269        -23.792
   2.271        -23.793
   2.274        -23.794
   2.276        -23.795
   2.278        -23.796
   2.280        -23.797
   2.282        -23.798
   2.284        -23.799
   2.287        -23.800
   2.289        -23.801
   2.291        -23.802
   2.293        -23.803
   2.295        -23.804
   2.297        -23.805
   2.299        -23.805
   2.302        -23.806
   2.304        -23.807
   2.306        -23.808
   2.308        -23.809
   2.310        -23.810
   2.313        -23.811
   2.315        -23.812
   2.317        -23.813
   2.319        -23.814
   2.321        -23.815
   2.323        -23.815
   2.326        -23.816
   2.328        -23.817
   2.330        -23.818
   2.332        -23.819
   2.334        -23.820
   2.337        -23.821
   2.339        -23.822
   2.341        -23.823
   2.343        -23.824
   2.345        -23.824
   2.347        -23.825
   2.349        -23.827
   2.352        -23.828
   2.354        -23.828
   2.356        -23.829
   2.358        -23.830
   2.360        -23.831
   2.363        -23.832
   2.365        -23.833
   2.367        -23.834
   2.369        -23.835
   2.371        -23.836
   2.374        -23.837
   2.376        -23.838
   2.378        -23.839
   2.380        -23.840
   2.382        -23.841
   2.384        -23.842
   2.386        -23.843
   2.389        -23.844
   2.391        -23.845
   2.393        -23.846
   2.395        -23.848
   2.397        -23.849
   2.400        -23.850
   2.402        -23.851
   2.404        -23.852
   2.406        -23.853
   2.408        -23.854
   2.410        -23.856
   2.413        -23.857
   2.415        -23.858
   2.417        -23.859
   2.419        -23.861
   2.421        -23.862
   2.423        -23.863
   2.425        -23.864
   2.428        -23.866
   2.430        -23.867
   2.432        -23.868
   2.434        -23.870
   2.436        -23.871
   2.439        -23.872
   2.441        -23.873
   2.443        -23.874
   2.445        -23.876
   2.447        -23.878
   2.449        -23.879
   2.452        -23.880
   2.454        -23.882
   2.456        -23.883
   2.458        -23.885
   2.460        -23.886
   2.462        -23.888
   2.465        -23.889
   2.467        -23.891
   2.469        -23.892
   2.471        -23.894
   2.473        -23.896
   2.475        -23.898
   2.478        -23.900
   2.480        -23.901
   2.482        -23.903
   2.484        -23.905
   2.486        -23.906
   2.489        -23.909
   2.491        -23.911
   2.493        -23.913
   2.495        -23.915
   2.497        -23.917
   2.499        -23.919
   2.502        -23.922
   2.504        -23.924
   2.506        -23.926
   2.508        -23.928
   2.510        -23.931
   2.512        -23.933
   2.514        -23.936
   2.517        -23.938
   2.519        -23.941
   2.521        -23.943
   2.523        -23.946
   2.525        -23.948
   2.528        -23.951
   2.530        -23.953
   2.532        -23.956
   2.534        -23.959
   2.536        -23.962
   2.538        -23.965
   2.541        -23.968
   2.543        -23.971
   2.545        -23.974
   2.547        -23.977
   2.549        -23.980
   2.552        -23.983
   2.554        -23.986
   2.556        -23.990
   2.558        -23.993
   2.560        -23.996
   2.562        -23.999
   2.565        -24.003
   2.567        -24.006
   2.569        -24.009
   2.571        -24.012
   2.573        -24.016
   2.575        -24.019
   2.578        -24.023
   2.580        -24.026
   2.582        -24.030
   2.584        -24.034
   2.586        -24.038
   2.588        -24.041
   2.590        -24.045
   2.593        -24.048
   2.595        -24.052
   2.597        -24.056
   2.599        -24.060
   2.601        -24.064
   2.604        -24.068
   2.606        -24.071
   2.608        -24.075
   2.610        -24.079
   2.612        -24.083
   2.614        -24.087
   2.617        -24.091
   2.619        -24.095
   2.621        -24.099
   2.623        -24.103
   2.625        -24.107
   2.627        -24.111
   2.630        -24.115
   2.632        -24.119
   2.634        -24.123
   2.636        -24.128
   2.638        -24.132
   2.641        -24.136
   2.643        -24.140
   2.645        -24.145
   2.647        -24.149
   2.649        -24.153
   2.651        -24.157
   2.654        -24.162
   2.656        -24.166
   2.658        -24.170
   2.660        -24.174
   2.662        -24.179
   2.664        -24.183
   2.666        -24.187
   2.669        -24.192
   2.671        -24.196
   2.673        -24.200
   2.675        -24.204
   2.677        -24.209
   2.680        -24.213
   2.682        -24.217
   2.684        -24.221
   2.686        -24.226
   2.688        -24.230
   2.690        -24.234
   2.693        -24.239
   2.695        -24.243
   2.697        -24.246
   2.699        -24.250
   2.701        -24.254
   2.703        -24.258
   2.706        -24.261
   2.708        -24.265
   2.710        -24.269
   2.712        -24.273
   2.714        -24.276
   2.716        -24.280
   2.719        -24.283
   2.721        -24.286
   2.723        -24.289
   2.725        -24.292
   2.727        -24.295
   2.729        -24.298
   2.732        -24.301
   2.734        -24.304
   2.736        -24.307
   2.738        -24.310
   2.740        -24.312
   2.743        -24.315
   2.745        -24.318
   2.747        -24.320
   2.749        -24.323
   2.751        -24.325
   2.753        -24.328
   2.756        -24.331
   2.758        -24.333
   2.760        -24.335
   2.762        -24.338
   2.764        -24.340
   2.766        -24.342
   2.769        -24.344
   2.771        -24.347
   2.773        -24.349
   2.775        -24.351
   2.777        -24.354
   2.779        -24.356
   2.782        -24.358
   2.784        -24.360
   2.786        -24.362
   2.788        -24.364
   2.790        -24.366
   2.792        -24.368
   2.795        -24.370
   2.797        -24.372
   2.799        -24.374
   2.801        -24.376
   2.803        -24.377
   2.805        -24.379
   2.808        -24.381
   2.810        -24.383
   2.812        -24.385
   2.814        -24.386
   2.816        -24.388
   2.819        -24.390
   2.821        -24.392
   2.823        -24.393
   2.825        -24.395
   2.827        -24.397
   2.829        -24.398
   2.832        -24.400
   2.834        -24.401
   2.836        -24.403
   2.838        -24.405
   2.840        -24.406
   2.842        -24.408
   2.845        -24.409
   2.847        -24.410
   2.849        -24.412
   2.851        -24.413
   2.853        -24.415
   2.855        -24.416
   2.858        -24.418
   2.860        -24.419
   2.862        -24.420
   2.864        -24.422
   2.866        -24.423
   2.868        -24.424
   2.871        -24.426
   2.873        -24.427
   2.875        -24.428
   2.877        -24.429
   2.879        -24.431
   2.881        -24.432
   2.884        -24.433
   2.886        -24.434
   2.888        -24.436
   2.890        -24.437
   2.892        -24.438
   2.894        -24.439
   2.897        -24.440
   2.899        -24.442
   2.901        -24.443
   2.903        -24.444
   2.905        -24.445
   2.908        -24.446
   2.910        -24.447
   2.912        -24.448
   2.914        -24.449
   2.916        -24.451
   2.918        -24.452
   2.921        -24.453
   2.923        -24.454
   2.925        -24.455
   2.927        -24.456
   2.929        -24.457
   2.931        -24.458
   2.934        -24.459
   2.936        -24.460
   2.938        -24.461
   2.940        -24.462
   2.942        -24.463
   2.944        -24.464
   2.947        -24.465
   2.949        -24.465
   2.951        -24.466
   2.953        -24.467
   2.955        -24.468
   2.957        -24.469
   2.960        -24.470
   2.962        -24.471
   2.964        -24.472
   2.966        -24.473
   2.968        -24.474
   2.970        -24.475
   2.973        -24.476
   2.975        -24.477
   2.977        -24.478
   2.979        -24.479
   2.981        -24.480
   2.984        -24.481
   2.986        -24.481
   2.988        -24.482
   2.990        -24.483
   2.992        -24.484
   2.994        -24.485
   2.997        -24.486
   2.999        -24.487
   3.001        -24.488
   3.003        -24.489
   3.005        -24.490
   3.007        -24.491
   3.010        -24.492
   3.012        -24.493
   3.014        -24.494
   3.016        -24.494
   3.018        -24.495
   3.020        -24.496
   3.023        -24.497
   3.025        -24.498
   3.027        -24.499
   3.029        -24.500
   3.031        -24.501
   3.033        -24.502
   3.036        -24.503
   3.038        -24.504
   3.040        -24.505
   3.042        -24.506
   3.044        -24.507
   3.046        -24.508
   3.049        -24.508
   3.051        -24.509
   3.053        -24.510
   3.055        -24.511
   3.057        -24.512
   3.060        -24.513
   3.062        -24.514
   3.064        -24.515
   3.066        -24.516
   3.068        -24.517
   3.070        -24.518
   3.073        -24.519
   3.075        -24.520
   3.077        -24.521
   3.079        -24.522
   3.081        -24.522
   3.083        -24.523
   3.086        -24.524
   3.088        -24.525
   3.090        -24.526
   3.092        -24.527
   3.094        -24.528
   3.096        -24.529
   3.099        -24.530
   3.101        -24.531
   3.103        -24.532
   3.105        -24.533
   3.107        -24.534
   3.109        -24.535
   3.112        -24.536
   3.114        -24.536
   3.116        -24.538
   3.118        -24.539
   3.120        -24.540
   3.123        -24.540
   3.125        -24.541
   3.127        -24.542
   3.129        -24.543
   3.131        -24.544
   3.133        -24.545
   3.136        -24.546
   3.138        -24.547
   3.140        -24.548
   3.142        -24.549
   3.144        -24.550
   3.146        -24.551
   3.149        -24.552
   3.151        -24.553
   3.153        -24.554
   3.155        -24.554
   3.157        -24.556
   3.159        -24.557
   3.162        -24.558
   3.164        -24.558
   3.166        -24.560
   3.168        -24.561
   3.170        -24.561
   3.172        -24.562
   3.175        -24.564
   3.177        -24.565
   3.179        -24.565
   3.181        -24.566
   3.183        -24.567
   3.185        -24.568
   3.188        -24.570
   3.190        -24.570
   3.192        -24.572
   3.194        -24.572
   3.196        -24.574
   3.199        -24.574
   3.201        -24.575
   3.203        -24.576
   3.205        -24.577
   3.207        -24.578
   3.209        -24.580
   3.212        -24.580
   3.214        -24.581
   3.216        -24.582
   3.218        -24.583
   3.220        -24.584
   3.222        -24.585
   3.225        -24.586
   3.227        -24.587
   3.229        -24.588
   3.231        -24.589
   3.233        -24.590
   3.236        -24.591
   3.237        -24.592
   3.240        -24.593
   3.242        -24.594
   3.244        -24.595
   3.246        -24.596
   3.248        -24.597
   3.251        -24.598
   3.253        -24.599
   3.255        -24.600
   3.257        -24.601
   3.259        -24.602
   3.261        -24.603
   3.263        -24.604
   3.266        -24.605
   3.268        -24.606
   3.270        -24.607
   3.272        -24.608
   3.274        -24.609
   3.277        -24.610
   3.279        -24.611
   3.281        -24.612
   3.283        -24.612
   3.285        -24.614
   3.287        -24.614
   3.290        -24.616
   3.292        -24.616
   3.294        -24.617
   3.296        -24.618
   3.298        -24.619
   3.301        -24.620
   3.303        -24.621
   3.305        -24.622
   3.307        -24.624
   3.309        -24.625
   3.311        -24.625
   3.313        -24.626
   3.316        -24.627
   3.318        -24.628
   3.320        -24.629
   3.322        -24.630
   3.324        -24.631
   3.327        -24.633
   3.329        -24.634
   3.331        -24.635
   3.333        -24.635
   3.335        -24.636
   3.337        -24.637
   3.340        -24.638
   3.342        -24.640
   3.344        -24.640
   3.346        -24.642
   3.348        -24.643
   3.350        -24.644
   3.352        -24.644
   3.355        -24.645
   3.357        -24.647
   3.359        -24.648
   3.361        -24.648
   3.363        -24.649
   3.366        -24.650
   3.368        -24.651
   3.370        -24.652
   3.372        -24.653
   3.374        -24.654
   3.376        -24.655
   3.379        -24.656
   3.381        -24.657
   3.383        -24.658
   3.385        -24.659
   3.387        -24.660
   3.389        -24.661
   3.392        -24.662
   3.394        -24.663
   3.396        -24.664
   3.398        -24.665
   3.400        -24.666
   3.402        -24.667
   3.405        -24.668
   3.407        -24.669
   3.409        -24.670
   3.411        -24.670
   3.413        -24.672
   3.416        -24.672
   3.418        -24.673
   3.420        -24.674
   3.422        -24.675
   3.424        -24.676
   3.426        -24.677
   3.429        -24.678
   3.431        -24.679
   3.433        -24.680
   3.435        -24.681
   3.437        -24.682
   3.439        -24.683
   3.442        -24.684
   3.444        -24.685
   3.446        -24.686
   3.448        -24.687
   3.450        -24.687
   3.452        -24.688
   3.455        -24.689
   3.457        -24.690
   3.459        -24.691
   3.461        -24.692
   3.463        -24.693
   3.466        -24.694
   3.468        -24.695
   3.470        -24.696
   3.472        -24.697
   3.474        -24.698
   3.476        -24.699
   3.478        -24.699
   3.481        -24.700
   3.483        -24.701
   3.485        -24.702
   3.487        -24.703
   3.489        -24.704
   3.492        -24.705
   3.494        -24.706
   3.496        -24.707
   3.498        -24.708
   3.500        -24.709
   3.502        -24.710
   3.505        -24.710
   3.507        -24.711
   3.509        -24.712
   3.511        -24.713
   3.513        -24.714
   3.515        -24.715
   3.518        -24.716
   3.520        -24.717
   3.522        -24.718
   3.524        -24.719
   3.526        -24.720
   3.528        -24.721
   3.531        -24.722
   3.533        -24.722
   3.535        -24.724
   3.537        -24.725
   3.539        -24.725
   3.541        -24.726
   3.544        -24.727
   3.546        -24.728
   3.548        -24.729
   3.550        -24.730
   3.552        -24.731
   3.555        -24.732
   3.557        -24.733
   3.559        -24.734
   3.561        -24.735
   3.563        -24.736
   3.565        -24.737
   3.568        -24.737
   3.570        -24.738
   3.572        -24.739
   3.574        -24.740
   3.576        -24.741
   3.578        -24.742
   3.581        -24.743
   3.583        -24.744
   3.585        -24.745
   3.587        -24.746
   3.589        -24.747
   3.591        -24.748
   3.594        -24.749
   3.596        -24.750
   3.598        -24.751
   3.600        -24.752
   3.602        -24.752
   3.604        -24.753
   3.607        -24.755
   3.609        -24.756
   3.611        -24.757
   3.613        -24.757
   3.615        -24.758
   3.617        -24.759
   3.620        -24.760
   3.622        -24.761
   3.624        -24.762
   3.626        -24.763
   3.628        -24.764
   3.630        -24.765
   3.633        -24.766
   3.635        -24.767
   3.637        -24.768
   3.639        -24.769
   3.641        -24.770
   3.644        -24.771
   3.646        -24.773
   3.648        -24.774
   3.650        -24.775
   3.652        -24.776
   3.654        -24.777
   3.657        -24.778
   3.659        -24.779
   3.661        -24.780
   3.663        -24.781
   3.665        -24.782
   3.667        -24.783
   3.670        -24.784
   3.672        -24.785
   3.674        -24.786
   3.676        -24.787
   3.678        -24.788
   3.680        -24.789
   3.683        -24.790
   3.685        -24.791
   3.687        -24.792
   3.689        -24.793
   3.691        -24.794
   3.693        -24.796
   3.696        -24.797
   3.698        -24.798
   3.700        -24.799
   3.702        -24.800
   3.704        -24.801
   3.706        -24.802
   3.709        -24.803
   3.711        -24.804
   3.713        -24.805
   3.715        -24.806
   3.717        -24.807
   3.719        -24.809
   3.722        -24.810
   3.724        -24.811
   3.726        -24.812
   3.728        -24.813
   3.730        -24.814
   3.733        -24.815
   3.735        -24.816
   3.737        -24.817
   3.739        -24.819
   3.741        -24.820
   3.743        -24.821
   3.746        -24.822
   3.748        -24.823
   3.750        -24.824
   3.752        -24.825
   3.754        -24.826
   3.756        -24.828
   3.759        -24.829
   3.761        -24.830
   3.763        -24.831
   3.765        -24.832
   3.767        -24.833
   3.769        -24.834
   3.772        -24.835
   3.774        -24.837
   3.776        -24.838
   3.778        -24.839
   3.780        -24.840
   3.782        -24.841
   3.785        -24.842
   3.787        -24.843
   3.789        -24.845
   3.791        -24.846
   3.793        -24.847
   3.795        -24.848
   3.798        -24.849
   3.800        -24.851
   3.802        -24.852
   3.804        -24.853
   3.806        -24.854
   3.809        -24.855
   3.811        -24.856
   3.813        -24.857
   3.815        -24.858
   3.817        -24.860
   3.819        -24.861
   3.822        -24.862
   3.824        -24.863
   3.826        -24.864
   3.828        -24.865
   3.830        -24.866
   3.832        -24.867
   3.835        -24.868
   3.837        -24.869
   3.839        -24.871
   3.841        -24.871
   3.843        -24.872
   3.845        -24.873
   3.848        -24.874
   3.850        -24.875
   3.852        -24.876
   3.854        -24.876
   3.856        -24.877
   3.858        -24.878
   3.861        -24.879
   3.863        -24.879
   3.865        -24.880
   3.867        -24.881
   3.869        -24.881
   3.871        -24.882
   3.874        -24.882
   3.876        -24.883
   3.878        -24.884
   3.880        -24.884
   3.882        -24.885
   3.885        -24.886
   3.887        -24.886
   3.889        -24.887
   3.891        -24.887
   3.899        -24.890
   3.912        -24.894
   3.925        -24.897
   3.938        -24.901
   3.951        -24.905
   3.964        -24.909
   3.977        -24.913
   3.990        -24.916
   4.003        -24.921
   4.016        -24.925
   4.029        -24.929
   4.042        -24.933
   4.055        -24.937
   4.068        -24.941
   4.081        -24.945
   4.094        -24.950
   4.107        -24.955
   4.120        -24.959
   4.133        -24.965
   4.146        -24.970
   4.159        -24.975
   4.172        -24.980
   4.185        -24.986
   4.198        -24.992
   4.211        -24.999
   4.224        -25.005
   4.237        -25.012
   4.250        -25.020
   4.263        -25.028
   4.276        -25.036
   4.289        -25.045
   4.302        -25.054
   4.315        -25.063
   4.328        -25.073
   4.341        -25.083
   4.354        -25.093
   4.367        -25.104
   4.380        -25.115
   4.393        -25.127
   4.406        -25.139
   4.420        -25.151
   4.432        -25.163
   4.445        -25.176
   4.459        -25.189
   4.471        -25.201
   4.484        -25.215
   4.498        -25.228
   4.510        -25.242
   4.524        -25.256
   4.537        -25.270
   4.550        -25.284
   4.563        -25.299
   4.576        -25.313
   4.589        -25.328
   4.602        -25.343
   4.615        -25.358
   4.628        -25.373
   4.641        -25.389
   4.654        -25.404
   4.667        -25.420
   4.680        -25.435
   4.693        -25.451
   4.706        -25.468
   4.719        -25.484
   4.732        -25.500
   4.745        -25.517
   4.758        -25.534
   4.771        -25.550
   4.784        -25.567
   4.797        -25.584
   4.810        -25.601
   4.823        -25.619
   4.836        -25.637
   4.849        -25.654
   4.862        -25.672
   4.875        -25.690
   4.888        -25.708
   4.901        -25.726
   4.914        -25.744
   4.927        -25.763
   4.940        -25.782
   4.953        -25.800
   4.966        -25.819
   4.979        -25.838
   4.992        -25.858
   5.005        -25.876
   5.018        -25.896
   5.031        -25.915
   5.044        -25.935
   5.057        -25.955
   5.070        -25.975
   5.083        -25.994
   5.096        -26.014
   5.109        -26.035
   5.123        -26.055
   5.136        -26.075
   5.149        -26.095
   5.162        -26.115
   5.175        -26.136
   5.188        -26.157
   5.201        -26.177
   5.214        -26.198
   5.227        -26.219
   5.240        -26.240
   5.253        -26.260
   5.266        -26.282
   5.279        -26.303
   5.292        -26.324
   5.305        -26.346
   5.318        -26.367
   5.331        -26.389
   5.344        -26.411
   5.357        -26.433
   5.370        -26.456
   5.383        -26.478
   5.396        -26.501
   5.409        -26.524
   5.422        -26.548
   5.435        -26.571
   5.448        -26.595
   5.461        -26.619
   5.474        -26.644
   5.487        -26.668
   5.500        -26.693
   5.513        -26.719
   5.526        -26.744
   5.539        -26.771
   5.552        -26.797
   5.565        -26.824
   5.578        -26.851
   5.591        -26.879
   5.604        -26.907
   5.617        -26.935
   5.630        -26.964
   5.643        -26.993
   5.656        -27.023
   5.669        -27.053
   5.682        -27.083
   5.695        -27.114
   5.708        -27.146
   5.721        -27.178
   5.734        -27.211
   5.748        -27.244
   5.761        -27.278
   5.774        -27.312
   5.787        -27.348
   5.800        -27.383
   5.813        -27.419
   5.826        -27.456
   5.839        -27.494
   5.852        -27.532
   5.865        -27.571
   5.878        -27.611
   5.891        -27.652
   5.904        -27.693
   5.917        -27.735
   5.930        -27.778
   5.943        -27.822
   5.956        -27.867
   5.969        -27.912
   5.982        -27.958
   5.995        -28.006
   6.008        -28.055
   6.021        -28.104
   6.034        -28.154
   6.047        -28.205
   6.060        -28.258
   6.073        -28.312
   6.086        -28.367
   6.099        -28.423
   6.112        -28.480
   6.125        -28.538
   6.138        -28.598
   6.151        -28.659
   6.164        -28.721
   6.177        -28.785
   6.190        -28.850
   6.203        -28.917
   6.216        -28.985
   6.229        -29.054
   6.242        -29.126
   6.255        -29.198
   6.268        -29.273
   6.281        -29.350
   6.294        -29.427
   6.307        -29.507
   6.320        -29.588
   6.334        -29.673
   6.346        -29.758
   6.359        -29.846
   6.372        -29.935
   6.386        -30.027
   6.399        -30.122
   6.411        -30.218
   6.425        -30.317
   6.438        -30.419
   6.451        -30.522
   6.464        -30.627
   6.477        -30.735
   6.490        -30.846
   6.503        -30.962
   6.516        -31.079
   6.529        -31.198
   6.542        -31.322
   6.555        -31.448
   6.568        -31.577
   6.581        -31.710
   6.594        -31.847
   6.607        -31.988
   6.620        -32.132
   6.633        -32.276
   6.646        -32.425
   6.659        -32.580
   6.672        -32.739
   6.685        -32.902
   6.698        -33.068
   6.711        -33.240
   6.724        -33.418
   6.737        -33.599
   6.750        -33.782
   6.763        -33.978
   6.776        -34.181
   6.789        -34.385
   6.802        -34.593
   6.815        -34.810
   6.828        -35.055
   6.841        -35.323
   6.854        -35.635
   6.867        -36.284
   6.880        -37.366
