# log Energy    log Jnu
# (eV)          (ergs/s/cm2/Hz/Sr)
  -6.864        -20.278
  -6.820        -20.191
  -6.777        -20.104
  -6.734        -20.017
  -6.690        -19.931
  -6.647        -19.844
  -6.603        -19.757
  -6.560        -19.670
  -6.516        -19.583
  -6.473        -19.496
  -6.430        -19.409
  -6.386        -19.323
  -6.343        -19.236
  -6.299        -19.149
  -6.256        -19.062
  -6.212        -18.975
  -6.169        -18.888
  -6.126        -18.801
  -6.082        -18.715
  -6.039        -18.628
  -5.995        -18.541
  -5.952        -18.454
  -5.908        -18.367
  -5.865        -18.281
  -5.822        -18.194
  -5.778        -18.107
  -5.735        -18.020
  -5.691        -17.933
  -5.648        -17.846
  -5.605        -17.760
  -5.561        -17.673
  -5.518        -17.586
  -5.474        -17.499
  -5.431        -17.412
  -5.387        -17.326
  -5.344        -17.239
  -5.300        -17.152
  -5.257        -17.065
  -5.214        -16.979
  -5.170        -16.892
  -5.127        -16.805
  -5.083        -16.718
  -5.040        -16.632
  -4.996        -16.545
  -4.953        -16.458
  -4.910        -16.372
  -4.866        -16.285
  -4.823        -16.199
  -4.779        -16.112
  -4.736        -16.025
  -4.692        -15.939
  -4.649        -15.853
  -4.606        -15.766
  -4.562        -15.680
  -4.519        -15.594
  -4.475        -15.507
  -4.432        -15.421
  -4.388        -15.335
  -4.345        -15.249
  -4.302        -15.163
  -4.258        -15.077
  -4.215        -14.991
  -4.171        -14.906
  -4.128        -14.820
  -4.084        -14.735
  -4.041        -14.650
  -3.998        -14.565
  -3.954        -14.480
  -3.911        -14.396
  -3.867        -14.311
  -3.824        -14.227
  -3.781        -14.144
  -3.737        -14.060
  -3.693        -13.977
  -3.650        -13.895
  -3.607        -13.813
  -3.584        -13.774
  -3.582        -13.764
  -3.580        -13.762
  -3.577        -13.759
  -3.575        -13.755
  -3.573        -13.751
  -3.571        -13.747
  -3.569        -13.743
  -3.567        -13.739
  -3.564        -13.735
  -3.562        -13.731
  -3.560        -13.726
  -3.558        -13.722
  -3.556        -13.718
  -3.554        -13.714
  -3.551        -13.710
  -3.549        -13.706
  -3.547        -13.702
  -3.545        -13.698
  -3.543        -13.694
  -3.540        -13.690
  -3.538        -13.686
  -3.536        -13.682
  -3.534        -13.678
  -3.532        -13.674
  -3.530        -13.670
  -3.528        -13.666
  -3.525        -13.662
  -3.523        -13.658
  -3.521        -13.654
  -3.519        -13.649
  -3.517        -13.645
  -3.514        -13.641
  -3.512        -13.637
  -3.510        -13.633
  -3.508        -13.629
  -3.506        -13.625
  -3.504        -13.621
  -3.502        -13.617
  -3.499        -13.613
  -3.497        -13.609
  -3.495        -13.605
  -3.493        -13.601
  -3.491        -13.597
  -3.488        -13.593
  -3.486        -13.589
  -3.484        -13.585
  -3.482        -13.581
  -3.480        -13.577
  -3.477        -13.573
  -3.475        -13.569
  -3.473        -13.565
  -3.471        -13.561
  -3.469        -13.557
  -3.467        -13.553
  -3.464        -13.549
  -3.462        -13.545
  -3.460        -13.541
  -3.458        -13.537
  -3.456        -13.533
  -3.454        -13.529
  -3.451        -13.525
  -3.449        -13.521
  -3.447        -13.517
  -3.445        -13.513
  -3.443        -13.509
  -3.441        -13.505
  -3.438        -13.501
  -3.436        -13.497
  -3.434        -13.493
  -3.432        -13.489
  -3.430        -13.485
  -3.428        -13.482
  -3.425        -13.478
  -3.423        -13.474
  -3.421        -13.470
  -3.419        -13.466
  -3.417        -13.462
  -3.415        -13.458
  -3.412        -13.454
  -3.410        -13.450
  -3.408        -13.446
  -3.406        -13.442
  -3.404        -13.438
  -3.402        -13.434
  -3.399        -13.430
  -3.397        -13.426
  -3.395        -13.422
  -3.393        -13.418
  -3.391        -13.415
  -3.389        -13.411
  -3.386        -13.407
  -3.384        -13.403
  -3.382        -13.399
  -3.380        -13.395
  -3.378        -13.391
  -3.376        -13.387
  -3.373        -13.383
  -3.371        -13.379
  -3.369        -13.375
  -3.367        -13.371
  -3.365        -13.368
  -3.362        -13.364
  -3.360        -13.360
  -3.358        -13.356
  -3.356        -13.352
  -3.354        -13.348
  -3.352        -13.344
  -3.349        -13.340
  -3.347        -13.336
  -3.345        -13.333
  -3.343        -13.329
  -3.341        -13.325
  -3.339        -13.321
  -3.336        -13.317
  -3.334        -13.313
  -3.332        -13.309
  -3.330        -13.306
  -3.328        -13.302
  -3.326        -13.298
  -3.323        -13.294
  -3.321        -13.290
  -3.319        -13.286
  -3.317        -13.282
  -3.315        -13.279
  -3.313        -13.275
  -3.310        -13.271
  -3.308        -13.267
  -3.306        -13.263
  -3.304        -13.259
  -3.302        -13.256
  -3.300        -13.252
  -3.297        -13.248
  -3.295        -13.244
  -3.293        -13.240
  -3.291        -13.236
  -3.289        -13.233
  -3.287        -13.229
  -3.284        -13.225
  -3.282        -13.221
  -3.280        -13.217
  -3.278        -13.214
  -3.276        -13.210
  -3.273        -13.206
  -3.271        -13.202
  -3.269        -13.199
  -3.267        -13.195
  -3.265        -13.191
  -3.263        -13.187
  -3.260        -13.184
  -3.258        -13.180
  -3.256        -13.176
  -3.254        -13.172
  -3.252        -13.168
  -3.250        -13.165
  -3.247        -13.161
  -3.245        -13.157
  -3.243        -13.154
  -3.241        -13.150
  -3.239        -13.146
  -3.237        -13.142
  -3.234        -13.138
  -3.232        -13.135
  -3.230        -13.131
  -3.228        -13.127
  -3.226        -13.123
  -3.224        -13.120
  -3.221        -13.116
  -3.219        -13.112
  -3.217        -13.109
  -3.215        -13.105
  -3.213        -13.101
  -3.211        -13.097
  -3.208        -13.094
  -3.206        -13.090
  -3.204        -13.087
  -3.202        -13.083
  -3.200        -13.079
  -3.197        -13.076
  -3.195        -13.072
  -3.193        -13.068
  -3.191        -13.065
  -3.189        -13.061
  -3.187        -13.057
  -3.184        -13.054
  -3.182        -13.050
  -3.180        -13.046
  -3.178        -13.043
  -3.176        -13.039
  -3.174        -13.035
  -3.171        -13.032
  -3.169        -13.028
  -3.167        -13.024
  -3.165        -13.021
  -3.163        -13.017
  -3.161        -13.014
  -3.158        -13.010
  -3.156        -13.006
  -3.154        -13.003
  -3.152        -12.999
  -3.150        -12.996
  -3.148        -12.992
  -3.145        -12.989
  -3.143        -12.985
  -3.141        -12.981
  -3.139        -12.978
  -3.137        -12.974
  -3.135        -12.971
  -3.132        -12.967
  -3.130        -12.964
  -3.128        -12.960
  -3.126        -12.957
  -3.124        -12.953
  -3.122        -12.950
  -3.119        -12.946
  -3.117        -12.942
  -3.115        -12.939
  -3.113        -12.935
  -3.111        -12.932
  -3.108        -12.928
  -3.106        -12.925
  -3.104        -12.921
  -3.102        -12.918
  -3.100        -12.914
  -3.098        -12.911
  -3.095        -12.908
  -3.093        -12.904
  -3.091        -12.901
  -3.089        -12.897
  -3.087        -12.894
  -3.085        -12.890
  -3.082        -12.887
  -3.080        -12.883
  -3.078        -12.880
  -3.076        -12.876
  -3.074        -12.873
  -3.072        -12.870
  -3.069        -12.866
  -3.067        -12.863
  -3.065        -12.859
  -3.063        -12.856
  -3.061        -12.852
  -3.059        -12.849
  -3.056        -12.846
  -3.054        -12.842
  -3.052        -12.839
  -3.050        -12.836
  -3.048        -12.832
  -3.046        -12.829
  -3.043        -12.826
  -3.041        -12.822
  -3.039        -12.819
  -3.037        -12.816
  -3.035        -12.812
  -3.032        -12.809
  -3.030        -12.806
  -3.028        -12.802
  -3.026        -12.799
  -3.024        -12.796
  -3.022        -12.792
  -3.019        -12.789
  -3.017        -12.786
  -3.015        -12.782
  -3.013        -12.779
  -3.011        -12.776
  -3.009        -12.773
  -3.006        -12.769
  -3.004        -12.766
  -3.002        -12.763
  -3.000        -12.760
  -2.998        -12.756
  -2.996        -12.753
  -2.993        -12.750
  -2.991        -12.747
  -2.989        -12.744
  -2.987        -12.740
  -2.985        -12.737
  -2.983        -12.734
  -2.980        -12.731
  -2.978        -12.728
  -2.976        -12.725
  -2.974        -12.721
  -2.972        -12.718
  -2.970        -12.715
  -2.967        -12.712
  -2.965        -12.709
  -2.963        -12.706
  -2.961        -12.703
  -2.959        -12.699
  -2.956        -12.696
  -2.954        -12.693
  -2.952        -12.690
  -2.950        -12.687
  -2.948        -12.684
  -2.946        -12.681
  -2.944        -12.678
  -2.941        -12.675
  -2.939        -12.672
  -2.937        -12.669
  -2.935        -12.666
  -2.933        -12.663
  -2.930        -12.660
  -2.928        -12.657
  -2.926        -12.654
  -2.924        -12.651
  -2.922        -12.648
  -2.920        -12.645
  -2.917        -12.642
  -2.915        -12.639
  -2.913        -12.636
  -2.911        -12.633
  -2.909        -12.630
  -2.907        -12.627
  -2.904        -12.624
  -2.902        -12.621
  -2.900        -12.618
  -2.898        -12.615
  -2.896        -12.612
  -2.894        -12.610
  -2.891        -12.607
  -2.889        -12.604
  -2.887        -12.601
  -2.885        -12.598
  -2.883        -12.595
  -2.880        -12.593
  -2.878        -12.590
  -2.876        -12.587
  -2.874        -12.584
  -2.872        -12.581
  -2.870        -12.578
  -2.867        -12.576
  -2.865        -12.573
  -2.863        -12.570
  -2.861        -12.567
  -2.859        -12.565
  -2.857        -12.562
  -2.855        -12.559
  -2.852        -12.557
  -2.850        -12.554
  -2.848        -12.551
  -2.846        -12.548
  -2.843        -12.546
  -2.842        -12.543
  -2.839        -12.541
  -2.837        -12.538
  -2.835        -12.535
  -2.833        -12.533
  -2.831        -12.530
  -2.828        -12.527
  -2.826        -12.525
  -2.824        -12.522
  -2.822        -12.520
  -2.820        -12.517
  -2.817        -12.514
  -2.815        -12.512
  -2.813        -12.510
  -2.811        -12.507
  -2.809        -12.504
  -2.807        -12.502
  -2.805        -12.499
  -2.802        -12.497
  -2.800        -12.495
  -2.798        -12.492
  -2.796        -12.490
  -2.794        -12.487
  -2.792        -12.485
  -2.789        -12.482
  -2.787        -12.480
  -2.785        -12.478
  -2.783        -12.475
  -2.781        -12.473
  -2.779        -12.470
  -2.776        -12.468
  -2.774        -12.466
  -2.772        -12.463
  -2.770        -12.461
  -2.767        -12.459
  -2.765        -12.457
  -2.763        -12.454
  -2.761        -12.452
  -2.759        -12.450
  -2.757        -12.448
  -2.754        -12.446
  -2.753        -12.443
  -2.750        -12.441
  -2.748        -12.439
  -2.746        -12.437
  -2.744        -12.435
  -2.741        -12.432
  -2.739        -12.430
  -2.737        -12.428
  -2.735        -12.426
  -2.733        -12.424
  -2.731        -12.422
  -2.729        -12.420
  -2.726        -12.418
  -2.724        -12.416
  -2.722        -12.414
  -2.720        -12.412
  -2.718        -12.410
  -2.716        -12.408
  -2.713        -12.406
  -2.711        -12.404
  -2.709        -12.402
  -2.707        -12.400
  -2.705        -12.398
  -2.703        -12.396
  -2.700        -12.394
  -2.698        -12.392
  -2.696        -12.390
  -2.694        -12.389
  -2.692        -12.387
  -2.689        -12.385
  -2.687        -12.383
  -2.685        -12.381
  -2.683        -12.380
  -2.681        -12.378
  -2.679        -12.376
  -2.677        -12.374
  -2.674        -12.373
  -2.672        -12.371
  -2.670        -12.370
  -2.668        -12.368
  -2.666        -12.366
  -2.663        -12.365
  -2.661        -12.363
  -2.659        -12.361
  -2.657        -12.360
  -2.655        -12.358
  -2.653        -12.357
  -2.650        -12.355
  -2.648        -12.354
  -2.646        -12.353
  -2.644        -12.351
  -2.642        -12.349
  -2.640        -12.348
  -2.637        -12.347
  -2.635        -12.345
  -2.633        -12.344
  -2.631        -12.343
  -2.629        -12.341
  -2.626        -12.340
  -2.624        -12.339
  -2.622        -12.337
  -2.620        -12.336
  -2.618        -12.335
  -2.616        -12.334
  -2.614        -12.332
  -2.611        -12.331
  -2.609        -12.330
  -2.607        -12.329
  -2.605        -12.328
  -2.603        -12.327
  -2.600        -12.326
  -2.598        -12.325
  -2.596        -12.324
  -2.594        -12.322
  -2.592        -12.321
  -2.590        -12.320
  -2.587        -12.319
  -2.585        -12.319
  -2.583        -12.318
  -2.581        -12.317
  -2.579        -12.316
  -2.577        -12.315
  -2.574        -12.314
  -2.572        -12.313
  -2.570        -12.312
  -2.568        -12.312
  -2.566        -12.311
  -2.564        -12.310
  -2.561        -12.310
  -2.559        -12.309
  -2.557        -12.308
  -2.555        -12.308
  -2.553        -12.307
  -2.551        -12.306
  -2.548        -12.306
  -2.546        -12.305
  -2.544        -12.305
  -2.542        -12.304
  -2.540        -12.304
  -2.538        -12.303
  -2.535        -12.303
  -2.533        -12.302
  -2.531        -12.302
  -2.529        -12.302
  -2.527        -12.301
  -2.525        -12.301
  -2.522        -12.301
  -2.520        -12.300
  -2.518        -12.300
  -2.516        -12.300
  -2.514        -12.300
  -2.511        -12.300
  -2.509        -12.300
  -2.507        -12.299
  -2.505        -12.299
  -2.503        -12.299
  -2.501        -12.299
  -2.498        -12.299
  -2.496        -12.299
  -2.494        -12.299
  -2.492        -12.299
  -2.490        -12.300
  -2.488        -12.300
  -2.485        -12.300
  -2.483        -12.300
  -2.481        -12.300
  -2.479        -12.301
  -2.477        -12.301
  -2.475        -12.301
  -2.472        -12.301
  -2.470        -12.302
  -2.468        -12.302
  -2.466        -12.303
  -2.464        -12.303
  -2.462        -12.304
  -2.459        -12.304
  -2.457        -12.305
  -2.455        -12.305
  -2.453        -12.306
  -2.451        -12.306
  -2.448        -12.307
  -2.446        -12.308
  -2.444        -12.308
  -2.442        -12.309
  -2.440        -12.310
  -2.438        -12.311
  -2.435        -12.312
  -2.433        -12.313
  -2.431        -12.314
  -2.429        -12.315
  -2.427        -12.315
  -2.425        -12.317
  -2.422        -12.318
  -2.420        -12.319
  -2.418        -12.320
  -2.416        -12.321
  -2.414        -12.322
  -2.412        -12.323
  -2.409        -12.325
  -2.407        -12.326
  -2.405        -12.327
  -2.403        -12.328
  -2.401        -12.330
  -2.398        -12.331
  -2.396        -12.333
  -2.394        -12.334
  -2.392        -12.336
  -2.390        -12.337
  -2.388        -12.339
  -2.386        -12.341
  -2.383        -12.342
  -2.381        -12.344
  -2.379        -12.346
  -2.377        -12.348
  -2.375        -12.349
  -2.372        -12.351
  -2.370        -12.353
  -2.368        -12.355
  -2.366        -12.357
  -2.364        -12.359
  -2.362        -12.361
  -2.359        -12.363
  -2.357        -12.366
  -2.355        -12.368
  -2.353        -12.370
  -2.351        -12.372
  -2.349        -12.374
  -2.346        -12.377
  -2.344        -12.379
  -2.342        -12.382
  -2.340        -12.384
  -2.338        -12.386
  -2.336        -12.389
  -2.333        -12.392
  -2.331        -12.394
  -2.329        -12.397
  -2.327        -12.400
  -2.325        -12.402
  -2.323        -12.405
  -2.320        -12.408
  -2.318        -12.411
  -2.316        -12.414
  -2.314        -12.417
  -2.312        -12.420
  -2.309        -12.423
  -2.307        -12.426
  -2.305        -12.429
  -2.303        -12.433
  -2.301        -12.436
  -2.299        -12.439
  -2.297        -12.442
  -2.294        -12.446
  -2.292        -12.449
  -2.290        -12.453
  -2.288        -12.456
  -2.286        -12.460
  -2.283        -12.464
  -2.281        -12.467
  -2.279        -12.471
  -2.277        -12.475
  -2.275        -12.479
  -2.273        -12.482
  -2.270        -12.486
  -2.268        -12.490
  -2.266        -12.494
  -2.264        -12.498
  -2.262        -12.503
  -2.260        -12.507
  -2.257        -12.511
  -2.255        -12.515
  -2.253        -12.520
  -2.251        -12.524
  -2.249        -12.529
  -2.247        -12.533
  -2.244        -12.538
  -2.242        -12.542
  -2.240        -12.547
  -2.238        -12.552
  -2.236        -12.556
  -2.234        -12.561
  -2.231        -12.566
  -2.229        -12.571
  -2.227        -12.576
  -2.225        -12.581
  -2.223        -12.586
  -2.220        -12.591
  -2.218        -12.597
  -2.216        -12.602
  -2.214        -12.607
  -2.212        -12.613
  -2.210        -12.618
  -2.207        -12.623
  -2.205        -12.629
  -2.203        -12.635
  -2.201        -12.640
  -2.199        -12.646
  -2.197        -12.652
  -2.194        -12.658
  -2.192        -12.664
  -2.190        -12.670
  -2.188        -12.676
  -2.186        -12.682
  -2.184        -12.688
  -2.181        -12.694
  -2.179        -12.701
  -2.177        -12.707
  -2.175        -12.713
  -2.173        -12.720
  -2.171        -12.726
  -2.168        -12.733
  -2.166        -12.740
  -2.164        -12.746
  -2.162        -12.753
  -2.160        -12.760
  -2.158        -12.767
  -2.155        -12.774
  -2.153        -12.781
  -2.151        -12.788
  -2.149        -12.795
  -2.147        -12.803
  -2.145        -12.810
  -2.142        -12.818
  -2.140        -12.825
  -2.138        -12.833
  -2.136        -12.840
  -2.134        -12.848
  -2.131        -12.856
  -2.129        -12.864
  -2.127        -12.872
  -2.125        -12.879
  -2.123        -12.887
  -2.121        -12.896
  -2.118        -12.904
  -2.116        -12.912
  -2.114        -12.920
  -2.112        -12.929
  -2.110        -12.937
  -2.108        -12.946
  -2.105        -12.954
  -2.103        -12.963
  -2.101        -12.972
  -2.099        -12.981
  -2.097        -12.990
  -2.095        -12.999
  -2.092        -13.008
  -2.090        -13.017
  -2.088        -13.026
  -2.086        -13.036
  -2.084        -13.045
  -2.082        -13.055
  -2.079        -13.064
  -2.077        -13.074
  -2.075        -13.084
  -2.073        -13.093
  -2.071        -13.103
  -2.069        -13.113
  -2.066        -13.123
  -2.064        -13.134
  -2.062        -13.144
  -2.060        -13.154
  -2.058        -13.164
  -2.056        -13.175
  -2.053        -13.186
  -2.051        -13.196
  -2.049        -13.207
  -2.047        -13.218
  -2.045        -13.229
  -2.043        -13.240
  -2.040        -13.251
  -2.038        -13.262
  -2.036        -13.273
  -2.034        -13.284
  -2.032        -13.296
  -2.029        -13.307
  -2.027        -13.319
  -2.025        -13.331
  -2.023        -13.343
  -2.021        -13.355
  -2.019        -13.366
  -2.016        -13.378
  -2.014        -13.391
  -2.012        -13.403
  -2.010        -13.415
  -2.008        -13.428
  -2.006        -13.440
  -2.003        -13.453
  -2.001        -13.466
  -1.999        -13.478
  -1.997        -13.492
  -1.995        -13.505
  -1.993        -13.518
  -1.990        -13.531
  -1.988        -13.544
  -1.986        -13.558
  -1.984        -13.571
  -1.982        -13.585
  -1.980        -13.599
  -1.977        -13.612
  -1.975        -13.626
  -1.973        -13.640
  -1.971        -13.654
  -1.969        -13.669
  -1.967        -13.683
  -1.964        -13.697
  -1.962        -13.712
  -1.960        -13.727
  -1.958        -13.741
  -1.956        -13.756
  -1.953        -13.771
  -1.951        -13.786
  -1.949        -13.802
  -1.947        -13.817
  -1.945        -13.832
  -1.943        -13.848
  -1.940        -13.863
  -1.938        -13.879
  -1.936        -13.895
  -1.934        -13.911
  -1.932        -13.927
  -1.930        -13.943
  -1.927        -13.960
  -1.925        -13.976
  -1.923        -13.992
  -1.921        -14.009
  -1.919        -14.026
  -1.917        -14.043
  -1.914        -14.060
  -1.912        -14.077
  -1.910        -14.094
  -1.908        -14.111
  -1.906        -14.129
  -1.904        -14.146
  -1.901        -14.164
  -1.899        -14.182
  -1.897        -14.200
  -1.895        -14.218
  -1.893        -14.236
  -1.891        -14.255
  -1.888        -14.273
  -1.886        -14.292
  -1.884        -14.311
  -1.882        -14.329
  -1.880        -14.348
  -1.877        -14.367
  -1.875        -14.386
  -1.873        -14.406
  -1.871        -14.425
  -1.869        -14.445
  -1.867        -14.465
  -1.864        -14.484
  -1.862        -14.504
  -1.860        -14.525
  -1.858        -14.545
  -1.856        -14.565
  -1.853        -14.586
  -1.851        -14.606
  -1.849        -14.627
  -1.847        -14.648
  -1.845        -14.669
  -1.843        -14.690
  -1.841        -14.712
  -1.838        -14.733
  -1.836        -14.755
  -1.834        -14.777
  -1.832        -14.799
  -1.830        -14.820
  -1.828        -14.843
  -1.825        -14.865
  -1.823        -14.888
  -1.821        -14.910
  -1.819        -14.933
  -1.817        -14.956
  -1.815        -14.979
  -1.812        -15.002
  -1.810        -15.026
  -1.808        -15.049
  -1.806        -15.073
  -1.804        -15.097
  -1.801        -15.121
  -1.799        -15.145
  -1.797        -15.169
  -1.795        -15.193
  -1.793        -15.218
  -1.791        -15.243
  -1.788        -15.268
  -1.786        -15.293
  -1.784        -15.318
  -1.782        -15.343
  -1.780        -15.369
  -1.777        -15.395
  -1.775        -15.420
  -1.773        -15.447
  -1.771        -15.473
  -1.769        -15.499
  -1.767        -15.525
  -1.764        -15.552
  -1.763        -15.579
  -1.760        -15.606
  -1.758        -15.633
  -1.756        -15.660
  -1.754        -15.688
  -1.752        -15.716
  -1.749        -15.744
  -1.747        -15.772
  -1.745        -15.800
  -1.743        -15.828
  -1.741        -15.856
  -1.739        -15.885
  -1.736        -15.914
  -1.734        -15.943
  -1.732        -15.973
  -1.730        -16.002
  -1.728        -16.031
  -1.726        -16.061
  -1.723        -16.091
  -1.721        -16.121
  -1.719        -16.151
  -1.717        -16.182
  -1.715        -16.213
  -1.713        -16.243
  -1.710        -16.275
  -1.708        -16.306
  -1.706        -16.337
  -1.704        -16.369
  -1.702        -16.401
  -1.699        -16.433
  -1.697        -16.464
  -1.695        -16.497
  -1.693        -16.529
  -1.691        -16.562
  -1.689        -16.595
  -1.686        -16.628
  -1.684        -16.661
  -1.682        -16.695
  -1.680        -16.729
  -1.678        -16.762
  -1.675        -16.796
  -1.673        -16.831
  -1.671        -16.865
  -1.669        -16.899
  -1.667        -16.934
  -1.665        -16.969
  -1.663        -17.004
  -1.660        -17.039
  -1.658        -17.075
  -1.656        -17.110
  -1.654        -17.146
  -1.652        -17.182
  -1.650        -17.218
  -1.647        -17.255
  -1.645        -17.291
  -1.643        -17.327
  -1.641        -17.364
  -1.639        -17.401
  -1.637        -17.438
  -1.634        -17.475
  -1.632        -17.512
  -1.630        -17.550
  -1.628        -17.587
  -1.626        -17.625
  -1.623        -17.662
  -1.621        -17.700
  -1.619        -17.737
  -1.617        -17.775
  -1.615        -17.813
  -1.613        -17.851
  -1.611        -17.888
  -1.608        -17.926
  -1.606        -17.963
  -1.604        -18.000
  -1.602        -18.038
  -1.600        -18.075
  -1.597        -18.111
  -1.595        -18.148
  -1.593        -18.184
  -1.591        -18.220
  -1.589        -18.255
  -1.587        -18.290
  -1.584        -18.325
  -1.582        -18.359
  -1.580        -18.392
  -1.578        -18.425
  -1.576        -18.457
  -1.573        -18.488
  -1.571        -18.519
  -1.569        -18.548
  -1.567        -18.577
  -1.565        -18.605
  -1.563        -18.632
  -1.561        -18.657
  -1.558        -18.682
  -1.556        -18.705
  -1.554        -18.728
  -1.552        -18.749
  -1.550        -18.769
  -1.547        -18.788
  -1.545        -18.806
  -1.543        -18.823
  -1.541        -18.839
  -1.539        -18.853
  -1.537        -18.867
  -1.534        -18.880
  -1.532        -18.892
  -1.530        -18.903
  -1.528        -18.913
  -1.526        -18.922
  -1.524        -18.931
  -1.522        -18.938
  -1.519        -18.946
  -1.517        -18.952
  -1.515        -18.958
  -1.513        -18.964
  -1.511        -18.969
  -1.508        -18.973
  -1.506        -18.978
  -1.504        -18.982
  -1.502        -18.985
  -1.500        -18.989
  -1.498        -18.992
  -1.495        -18.995
  -1.493        -18.997
  -1.491        -18.999
  -1.489        -19.002
  -1.487        -19.004
  -1.484        -19.006
  -1.482        -19.007
  -1.480        -19.009
  -1.478        -19.011
  -1.476        -19.012
  -1.474        -19.014
  -1.472        -19.015
  -1.469        -19.016
  -1.467        -19.017
  -1.465        -19.019
  -1.463        -19.019
  -1.461        -19.021
  -1.458        -19.022
  -1.456        -19.023
  -1.454        -19.024
  -1.452        -19.025
  -1.450        -19.026
  -1.448        -19.026
  -1.445        -19.027
  -1.443        -19.028
  -1.441        -19.029
  -1.439        -19.030
  -1.437        -19.031
  -1.435        -19.032
  -1.432        -19.033
  -1.430        -19.033
  -1.428        -19.034
  -1.426        -19.035
  -1.424        -19.036
  -1.422        -19.037
  -1.419        -19.038
  -1.417        -19.038
  -1.415        -19.039
  -1.413        -19.040
  -1.411        -19.041
  -1.409        -19.042
  -1.406        -19.043
  -1.404        -19.043
  -1.402        -19.044
  -1.400        -19.045
  -1.398        -19.046
  -1.396        -19.046
  -1.393        -19.047
  -1.391        -19.048
  -1.389        -19.049
  -1.387        -19.049
  -1.385        -19.050
  -1.383        -19.051
  -1.380        -19.052
  -1.378        -19.053
  -1.376        -19.053
  -1.374        -19.054
  -1.372        -19.055
  -1.370        -19.055
  -1.367        -19.056
  -1.365        -19.057
  -1.363        -19.058
  -1.361        -19.059
  -1.359        -19.059
  -1.356        -19.060
  -1.354        -19.061
  -1.352        -19.062
  -1.350        -19.062
  -1.348        -19.063
  -1.346        -19.064
  -1.343        -19.065
  -1.341        -19.066
  -1.339        -19.066
  -1.337        -19.067
  -1.335        -19.068
  -1.333        -19.068
  -1.330        -19.069
  -1.328        -19.070
  -1.326        -19.071
  -1.324        -19.071
  -1.322        -19.072
  -1.320        -19.073
  -1.317        -19.074
  -1.315        -19.074
  -1.313        -19.075
  -1.311        -19.076
  -1.309        -19.076
  -1.307        -19.077
  -1.304        -19.078
  -1.302        -19.079
  -1.300        -19.080
  -1.298        -19.080
  -1.296        -19.081
  -1.293        -19.082
  -1.291        -19.082
  -1.289        -19.083
  -1.287        -19.084
  -1.285        -19.085
  -1.283        -19.085
  -1.280        -19.086
  -1.278        -19.087
  -1.276        -19.088
  -1.274        -19.088
  -1.272        -19.089
  -1.270        -19.090
  -1.267        -19.090
  -1.265        -19.091
  -1.263        -19.092
  -1.261        -19.093
  -1.259        -19.093
  -1.257        -19.094
  -1.254        -19.095
  -1.252        -19.096
  -1.250        -19.096
  -1.248        -19.097
  -1.246        -19.098
  -1.243        -19.098
  -1.241        -19.099
  -1.239        -19.100
  -1.237        -19.101
  -1.235        -19.101
  -1.233        -19.102
  -1.231        -19.103
  -1.228        -19.104
  -1.226        -19.104
  -1.224        -19.105
  -1.222        -19.106
  -1.220        -19.106
  -1.217        -19.107
  -1.215        -19.108
  -1.213        -19.109
  -1.211        -19.109
  -1.209        -19.110
  -1.207        -19.111
  -1.204        -19.112
  -1.202        -19.112
  -1.200        -19.113
  -1.198        -19.114
  -1.196        -19.115
  -1.194        -19.116
  -1.191        -19.116
  -1.189        -19.117
  -1.187        -19.118
  -1.185        -19.119
  -1.183        -19.119
  -1.181        -19.120
  -1.178        -19.121
  -1.176        -19.122
  -1.174        -19.122
  -1.172        -19.123
  -1.170        -19.124
  -1.168        -19.125
  -1.165        -19.126
  -1.163        -19.127
  -1.161        -19.127
  -1.159        -19.128
  -1.157        -19.129
  -1.155        -19.130
  -1.152        -19.131
  -1.150        -19.132
  -1.148        -19.132
  -1.146        -19.133
  -1.144        -19.134
  -1.142        -19.135
  -1.139        -19.136
  -1.137        -19.137
  -1.135        -19.137
  -1.133        -19.138
  -1.131        -19.139
  -1.129        -19.140
  -1.126        -19.141
  -1.124        -19.142
  -1.122        -19.143
  -1.120        -19.144
  -1.118        -19.145
  -1.115        -19.146
  -1.113        -19.147
  -1.111        -19.148
  -1.109        -19.149
  -1.107        -19.150
  -1.105        -19.151
  -1.102        -19.152
  -1.100        -19.152
  -1.098        -19.154
  -1.096        -19.155
  -1.094        -19.155
  -1.092        -19.157
  -1.089        -19.158
  -1.087        -19.159
  -1.085        -19.160
  -1.083        -19.161
  -1.081        -19.162
  -1.079        -19.163
  -1.076        -19.164
  -1.074        -19.165
  -1.072        -19.167
  -1.070        -19.168
  -1.068        -19.169
  -1.066        -19.170
  -1.063        -19.172
  -1.061        -19.173
  -1.059        -19.174
  -1.057        -19.175
  -1.055        -19.177
  -1.052        -19.178
  -1.050        -19.179
  -1.048        -19.181
  -1.046        -19.182
  -1.044        -19.184
  -1.042        -19.185
  -1.039        -19.186
  -1.037        -19.188
  -1.035        -19.189
  -1.033        -19.191
  -1.031        -19.192
  -1.029        -19.194
  -1.026        -19.196
  -1.024        -19.197
  -1.022        -19.199
  -1.020        -19.201
  -1.018        -19.202
  -1.016        -19.204
  -1.013        -19.206
  -1.011        -19.208
  -1.009        -19.209
  -1.007        -19.211
  -1.005        -19.213
  -1.003        -19.215
  -1.000        -19.217
  -0.998        -19.218
  -0.996        -19.220
  -0.994        -19.222
  -0.992        -19.224
  -0.990        -19.226
  -0.987        -19.227
  -0.985        -19.229
  -0.983        -19.231
  -0.981        -19.233
  -0.979        -19.234
  -0.977        -19.236
  -0.974        -19.238
  -0.972        -19.240
  -0.970        -19.242
  -0.968        -19.243
  -0.966        -19.245
  -0.963        -19.247
  -0.961        -19.248
  -0.959        -19.250
  -0.957        -19.252
  -0.955        -19.253
  -0.953        -19.255
  -0.950        -19.257
  -0.948        -19.258
  -0.946        -19.260
  -0.944        -19.261
  -0.942        -19.263
  -0.940        -19.264
  -0.937        -19.266
  -0.935        -19.267
  -0.933        -19.269
  -0.931        -19.270
  -0.929        -19.272
  -0.927        -19.273
  -0.924        -19.275
  -0.922        -19.276
  -0.920        -19.277
  -0.918        -19.279
  -0.916        -19.280
  -0.914        -19.281
  -0.911        -19.283
  -0.909        -19.284
  -0.907        -19.285
  -0.905        -19.286
  -0.903        -19.288
  -0.900        -19.289
  -0.898        -19.290
  -0.896        -19.291
  -0.894        -19.292
  -0.892        -19.294
  -0.890        -19.295
  -0.887        -19.296
  -0.885        -19.297
  -0.883        -19.298
  -0.881        -19.299
  -0.879        -19.300
  -0.877        -19.301
  -0.874        -19.302
  -0.872        -19.303
  -0.870        -19.303
  -0.868        -19.305
  -0.866        -19.305
  -0.864        -19.306
  -0.862        -19.307
  -0.859        -19.308
  -0.857        -19.308
  -0.855        -19.309
  -0.853        -19.310
  -0.851        -19.310
  -0.848        -19.311
  -0.846        -19.312
  -0.844        -19.312
  -0.842        -19.313
  -0.840        -19.314
  -0.838        -19.314
  -0.835        -19.314
  -0.833        -19.315
  -0.831        -19.315
  -0.829        -19.316
  -0.827        -19.316
  -0.825        -19.316
  -0.822        -19.317
  -0.820        -19.317
  -0.818        -19.318
  -0.816        -19.318
  -0.814        -19.318
  -0.812        -19.318
  -0.809        -19.318
  -0.807        -19.319
  -0.805        -19.319
  -0.803        -19.319
  -0.801        -19.319
  -0.799        -19.319
  -0.796        -19.319
  -0.794        -19.319
  -0.792        -19.319
  -0.790        -19.319
  -0.788        -19.319
  -0.785        -19.319
  -0.783        -19.319
  -0.781        -19.319
  -0.779        -19.319
  -0.777        -19.319
  -0.774        -19.319
  -0.772        -19.319
  -0.770        -19.318
  -0.768        -19.318
  -0.766        -19.318
  -0.764        -19.318
  -0.762        -19.318
  -0.759        -19.317
  -0.757        -19.317
  -0.755        -19.316
  -0.753        -19.316
  -0.751        -19.316
  -0.748        -19.315
  -0.746        -19.315
  -0.744        -19.314
  -0.742        -19.314
  -0.740        -19.313
  -0.738        -19.313
  -0.736        -19.312
  -0.733        -19.311
  -0.731        -19.311
  -0.729        -19.310
  -0.727        -19.310
  -0.725        -19.309
  -0.723        -19.308
  -0.720        -19.308
  -0.718        -19.307
  -0.716        -19.306
  -0.714        -19.305
  -0.712        -19.304
  -0.709        -19.304
  -0.707        -19.303
  -0.705        -19.302
  -0.703        -19.301
  -0.701        -19.300
  -0.699        -19.300
  -0.697        -19.298
  -0.694        -19.298
  -0.692        -19.297
  -0.690        -19.296
  -0.688        -19.295
  -0.685        -19.294
  -0.683        -19.293
  -0.681        -19.292
  -0.679        -19.291
  -0.677        -19.290
  -0.675        -19.288
  -0.673        -19.287
  -0.670        -19.286
  -0.668        -19.285
  -0.666        -19.284
  -0.664        -19.282
  -0.662        -19.281
  -0.659        -19.280
  -0.657        -19.279
  -0.655        -19.278
  -0.653        -19.276
  -0.651        -19.275
  -0.649        -19.274
  -0.647        -19.272
  -0.644        -19.271
  -0.642        -19.269
  -0.640        -19.268
  -0.638        -19.267
  -0.636        -19.266
  -0.633        -19.264
  -0.631        -19.262
  -0.629        -19.261
  -0.627        -19.259
  -0.625        -19.257
  -0.623        -19.255
  -0.621        -19.254
  -0.618        -19.252
  -0.616        -19.250
  -0.614        -19.248
  -0.612        -19.247
  -0.610        -19.244
  -0.608        -19.242
  -0.605        -19.240
  -0.603        -19.238
  -0.601        -19.236
  -0.599        -19.234
  -0.596        -19.232
  -0.594        -19.230
  -0.592        -19.228
  -0.590        -19.226
  -0.588        -19.223
  -0.586        -19.221
  -0.584        -19.219
  -0.581        -19.216
  -0.579        -19.214
  -0.577        -19.212
  -0.575        -19.209
  -0.573        -19.207
  -0.571        -19.205
  -0.568        -19.203
  -0.566        -19.200
  -0.564        -19.198
  -0.562        -19.196
  -0.560        -19.193
  -0.557        -19.191
  -0.555        -19.189
  -0.553        -19.187
  -0.551        -19.184
  -0.549        -19.182
  -0.547        -19.180
  -0.544        -19.178
  -0.542        -19.175
  -0.540        -19.173
  -0.538        -19.171
  -0.536        -19.169
  -0.534        -19.166
  -0.531        -19.164
  -0.529        -19.162
  -0.527        -19.159
  -0.525        -19.157
  -0.523        -19.155
  -0.521        -19.152
  -0.518        -19.150
  -0.516        -19.147
  -0.514        -19.145
  -0.512        -19.143
  -0.510        -19.140
  -0.507        -19.138
  -0.505        -19.136
  -0.503        -19.133
  -0.501        -19.131
  -0.499        -19.128
  -0.497        -19.126
  -0.495        -19.123
  -0.492        -19.121
  -0.490        -19.118
  -0.488        -19.116
  -0.486        -19.113
  -0.484        -19.111
  -0.482        -19.108
  -0.479        -19.106
  -0.477        -19.103
  -0.475        -19.101
  -0.473        -19.098
  -0.471        -19.096
  -0.468        -19.093
  -0.466        -19.091
  -0.464        -19.089
  -0.462        -19.086
  -0.460        -19.083
  -0.458        -19.081
  -0.455        -19.079
  -0.453        -19.076
  -0.451        -19.074
  -0.449        -19.071
  -0.447        -19.069
  -0.445        -19.066
  -0.442        -19.064
  -0.440        -19.062
  -0.438        -19.059
  -0.436        -19.057
  -0.434        -19.055
  -0.432        -19.052
  -0.429        -19.050
  -0.427        -19.048
  -0.425        -19.046
  -0.423        -19.043
  -0.421        -19.041
  -0.419        -19.039
  -0.416        -19.036
  -0.414        -19.034
  -0.412        -19.032
  -0.410        -19.030
  -0.408        -19.028
  -0.405        -19.026
  -0.403        -19.024
  -0.401        -19.022
  -0.399        -19.020
  -0.397        -19.017
  -0.395        -19.015
  -0.392        -19.013
  -0.390        -19.011
  -0.388        -19.009
  -0.386        -19.007
  -0.384        -19.005
  -0.382        -19.003
  -0.379        -19.001
  -0.377        -18.999
  -0.375        -18.997
  -0.373        -18.995
  -0.371        -18.993
  -0.369        -18.991
  -0.366        -18.988
  -0.364        -18.986
  -0.362        -18.985
  -0.360        -18.982
  -0.358        -18.980
  -0.356        -18.978
  -0.353        -18.976
  -0.351        -18.974
  -0.349        -18.972
  -0.347        -18.970
  -0.345        -18.968
  -0.343        -18.966
  -0.340        -18.964
  -0.338        -18.962
  -0.336        -18.960
  -0.334        -18.958
  -0.332        -18.956
  -0.330        -18.954
  -0.327        -18.952
  -0.325        -18.950
  -0.323        -18.948
  -0.321        -18.946
  -0.319        -18.944
  -0.316        -18.942
  -0.314        -18.940
  -0.312        -18.939
  -0.310        -18.937
  -0.308        -18.935
  -0.306        -18.933
  -0.303        -18.931
  -0.301        -18.930
  -0.299        -18.928
  -0.297        -18.927
  -0.295        -18.925
  -0.293        -18.924
  -0.290        -18.923
  -0.288        -18.921
  -0.286        -18.920
  -0.284        -18.918
  -0.282        -18.917
  -0.280        -18.916
  -0.277        -18.915
  -0.275        -18.914
  -0.273        -18.913
  -0.271        -18.912
  -0.269        -18.910
  -0.267        -18.909
  -0.264        -18.908
  -0.262        -18.907
  -0.260        -18.906
  -0.258        -18.905
  -0.256        -18.904
  -0.253        -18.903
  -0.251        -18.902
  -0.249        -18.902
  -0.247        -18.901
  -0.245        -18.900
  -0.243        -18.899
  -0.241        -18.898
  -0.238        -18.897
  -0.236        -18.897
  -0.234        -18.896
  -0.232        -18.895
  -0.230        -18.894
  -0.227        -18.894
  -0.225        -18.893
  -0.223        -18.893
  -0.221        -18.892
  -0.219        -18.891
  -0.217        -18.891
  -0.214        -18.890
  -0.212        -18.890
  -0.210        -18.889
  -0.208        -18.889
  -0.206        -18.888
  -0.204        -18.888
  -0.201        -18.888
  -0.199        -18.887
  -0.197        -18.887
  -0.195        -18.887
  -0.193        -18.886
  -0.191        -18.886
  -0.188        -18.886
  -0.186        -18.886
  -0.184        -18.885
  -0.182        -18.885
  -0.180        -18.885
  -0.178        -18.885
  -0.175        -18.885
  -0.173        -18.885
  -0.171        -18.885
  -0.169        -18.885
  -0.167        -18.885
  -0.164        -18.885
  -0.162        -18.886
  -0.160        -18.886
  -0.158        -18.886
  -0.156        -18.886
  -0.154        -18.886
  -0.151        -18.887
  -0.149        -18.887
  -0.147        -18.887
  -0.145        -18.888
  -0.143        -18.888
  -0.141        -18.888
  -0.138        -18.889
  -0.136        -18.889
  -0.134        -18.890
  -0.132        -18.890
  -0.130        -18.890
  -0.128        -18.891
  -0.125        -18.891
  -0.123        -18.891
  -0.121        -18.892
  -0.119        -18.892
  -0.117        -18.893
  -0.115        -18.893
  -0.112        -18.893
  -0.110        -18.894
  -0.108        -18.894
  -0.106        -18.894
  -0.104        -18.894
  -0.102        -18.895
  -0.099        -18.895
  -0.097        -18.895
  -0.095        -18.895
  -0.093        -18.895
  -0.091        -18.896
  -0.089        -18.896
  -0.086        -18.896
  -0.084        -18.896
  -0.082        -18.896
  -0.080        -18.896
  -0.078        -18.896
  -0.075        -18.896
  -0.073        -18.896
  -0.071        -18.896
  -0.069        -18.896
  -0.067        -18.897
  -0.065        -18.897
  -0.063        -18.897
  -0.060        -18.897
  -0.058        -18.897
  -0.056        -18.897
  -0.054        -18.897
  -0.052        -18.897
  -0.049        -18.897
  -0.047        -18.897
  -0.045        -18.897
  -0.043        -18.898
  -0.041        -18.898
  -0.039        -18.898
  -0.036        -18.898
  -0.034        -18.898
  -0.032        -18.898
  -0.030        -18.898
  -0.028        -18.898
  -0.026        -18.898
  -0.023        -18.899
  -0.021        -18.899
  -0.019        -18.899
  -0.017        -18.899
  -0.015        -18.899
  -0.013        -18.899
  -0.010        -18.899
  -0.008        -18.899
  -0.006        -18.899
  -0.004        -18.899
  -0.002        -18.900
   0.000        -18.900
   0.003        -18.900
   0.005        -18.900
   0.007        -18.900
   0.009        -18.900
   0.011        -18.900
   0.013        -18.900
   0.016        -18.900
   0.018        -18.900
   0.020        -18.900
   0.022        -18.900
   0.024        -18.900
   0.027        -18.901
   0.029        -18.901
   0.031        -18.901
   0.033        -18.901
   0.035        -18.901
   0.037        -18.901
   0.040        -18.901
   0.042        -18.901
   0.044        -18.902
   0.046        -18.902
   0.048        -18.902
   0.050        -18.902
   0.053        -18.902
   0.055        -18.902
   0.057        -18.903
   0.059        -18.903
   0.061        -18.903
   0.063        -18.903
   0.066        -18.903
   0.068        -18.903
   0.070        -18.903
   0.072        -18.903
   0.074        -18.903
   0.076        -18.903
   0.079        -18.903
   0.081        -18.903
   0.083        -18.903
   0.085        -18.903
   0.087        -18.903
   0.089        -18.903
   0.092        -18.903
   0.094        -18.903
   0.096        -18.903
   0.098        -18.903
   0.100        -18.903
   0.103        -18.903
   0.105        -18.903
   0.107        -18.903
   0.109        -18.903
   0.111        -18.903
   0.113        -18.903
   0.116        -18.903
   0.118        -18.903
   0.120        -18.902
   0.122        -18.902
   0.124        -18.902
   0.126        -18.902
   0.128        -18.902
   0.131        -18.902
   0.133        -18.902
   0.135        -18.902
   0.137        -18.902
   0.139        -18.902
   0.142        -18.902
   0.144        -18.901
   0.146        -18.901
   0.148        -18.901
   0.150        -18.901
   0.153        -18.901
   0.155        -18.900
   0.157        -18.901
   0.159        -18.900
   0.161        -18.901
   0.163        -18.901
   0.165        -18.901
   0.168        -18.901
   0.170        -18.901
   0.172        -18.901
   0.174        -18.901
   0.176        -18.901
   0.178        -18.901
   0.181        -18.902
   0.183        -18.902
   0.185        -18.903
   0.187        -18.903
   0.189        -18.904
   0.192        -18.904
   0.194        -18.904
   0.196        -18.905
   0.198        -18.905
   0.200        -18.906
   0.202        -18.906
   0.205        -18.907
   0.207        -18.907
   0.209        -18.908
   0.211        -18.909
   0.213        -18.909
   0.215        -18.910
   0.218        -18.911
   0.220        -18.911
   0.222        -18.912
   0.224        -18.912
   0.226        -18.913
   0.229        -18.914
   0.231        -18.914
   0.233        -18.915
   0.235        -18.915
   0.237        -18.916
   0.239        -18.917
   0.241        -18.918
   0.244        -18.918
   0.246        -18.919
   0.248        -18.920
   0.250        -18.920
   0.252        -18.921
   0.254        -18.922
   0.257        -18.923
   0.259        -18.923
   0.261        -18.924
   0.263        -18.925
   0.265        -18.926
   0.267        -18.927
   0.270        -18.927
   0.272        -18.928
   0.274        -18.929
   0.276        -18.930
   0.278        -18.931
   0.281        -18.932
   0.283        -18.932
   0.285        -18.933
   0.287        -18.934
   0.289        -18.935
   0.291        -18.936
   0.293        -18.937
   0.296        -18.938
   0.298        -18.939
   0.300        -18.940
   0.302        -18.941
   0.305        -18.942
   0.307        -18.943
   0.309        -18.944
   0.311        -18.945
   0.313        -18.947
   0.315        -18.948
   0.318        -18.949
   0.320        -18.950
   0.322        -18.951
   0.324        -18.952
   0.326        -18.953
   0.328        -18.955
   0.330        -18.956
   0.333        -18.957
   0.335        -18.958
   0.337        -18.959
   0.339        -18.961
   0.341        -18.962
   0.344        -18.963
   0.346        -18.964
   0.348        -18.966
   0.350        -18.967
   0.352        -18.968
   0.354        -18.970
   0.356        -18.971
   0.359        -18.972
   0.361        -18.974
   0.363        -18.975
   0.365        -18.976
   0.367        -18.977
   0.369        -18.979
   0.372        -18.980
   0.374        -18.982
   0.376        -18.983
   0.378        -18.984
   0.380        -18.985
   0.383        -18.987
   0.385        -18.988
   0.387        -18.990
   0.389        -18.991
   0.391        -18.993
   0.393        -18.994
   0.396        -18.996
   0.398        -18.997
   0.400        -18.999
   0.402        -19.000
   0.404        -19.002
   0.406        -19.004
   0.409        -19.005
   0.411        -19.007
   0.413        -19.009
   0.415        -19.011
   0.417        -19.013
   0.420        -19.015
   0.422        -19.017
   0.424        -19.019
   0.426        -19.020
   0.428        -19.023
   0.430        -19.025
   0.432        -19.027
   0.435        -19.029
   0.437        -19.031
   0.439        -19.033
   0.441        -19.035
   0.443        -19.037
   0.446        -19.039
   0.448        -19.042
   0.450        -19.044
   0.452        -19.047
   0.454        -19.049
   0.456        -19.052
   0.459        -19.054
   0.461        -19.057
   0.463        -19.059
   0.465        -19.062
   0.467        -19.064
   0.469        -19.067
   0.472        -19.069
   0.474        -19.071
   0.476        -19.073
   0.478        -19.076
   0.480        -19.078
   0.482        -19.080
   0.485        -19.083
   0.487        -19.085
   0.489        -19.087
   0.491        -19.088
   0.493        -19.088
   0.495        -19.089
   0.498        -19.090
   0.500        -19.090
   0.502        -19.091
   0.504        -19.092
   0.506        -19.092
   0.510        -19.093
   0.512        -19.092
   0.513        -19.092
   0.515        -19.092
   0.517        -19.091
   0.519        -19.090
   0.522        -19.090
   0.524        -19.089
   0.526        -19.089
   0.528        -19.088
   0.530        -19.087
   0.532        -19.087
   0.535        -19.086
   0.537        -19.086
   0.539        -19.085
   0.541        -19.084
   0.543        -19.084
   0.545        -19.083
   0.548        -19.083
   0.550        -19.082
   0.552        -19.081
   0.554        -19.081
   0.556        -19.080
   0.558        -19.080
   0.561        -19.079
   0.563        -19.079
   0.565        -19.078
   0.567        -19.078
   0.569        -19.077
   0.572        -19.077
   0.574        -19.076
   0.576        -19.075
   0.578        -19.075
   0.580        -19.074
   0.582        -19.074
   0.585        -19.073
   0.587        -19.072
   0.589        -19.072
   0.591        -19.071
   0.593        -19.071
   0.595        -19.070
   0.598        -19.069
   0.600        -19.069
   0.602        -19.068
   0.604        -19.068
   0.606        -19.067
   0.608        -19.067
   0.611        -19.066
   0.613        -19.065
   0.615        -19.065
   0.617        -19.063
   0.619        -19.063
   0.621        -19.062
   0.624        -19.061
   0.626        -19.061
   0.628        -19.060
   0.630        -19.059
   0.632        -19.058
   0.634        -19.058
   0.637        -19.057
   0.639        -19.056
   0.641        -19.055
   0.643        -19.055
   0.645        -19.054
   0.647        -19.053
   0.650        -19.053
   0.652        -19.052
   0.654        -19.051
   0.656        -19.051
   0.658        -19.050
   0.660        -19.050
   0.663        -19.049
   0.665        -19.049
   0.667        -19.048
   0.669        -19.048
   0.671        -19.047
   0.673        -19.047
   0.676        -19.046
   0.678        -19.046
   0.680        -19.045
   0.682        -19.045
   0.684        -19.044
   0.687        -19.043
   0.689        -19.043
   0.691        -19.042
   0.693        -19.042
   0.695        -19.041
   0.697        -19.040
   0.700        -19.040
   0.702        -19.039
   0.704        -19.039
   0.706        -19.038
   0.708        -19.037
   0.710        -19.037
   0.713        -19.036
   0.715        -19.035
   0.717        -19.035
   0.719        -19.034
   0.721        -19.034
   0.723        -19.033
   0.726        -19.033
   0.728        -19.033
   0.730        -19.032
   0.732        -19.032
   0.734        -19.031
   0.736        -19.031
   0.739        -19.031
   0.741        -19.030
   0.743        -19.030
   0.745        -19.030
   0.747        -19.029
   0.750        -19.029
   0.752        -19.029
   0.754        -19.029
   0.756        -19.028
   0.758        -19.028
   0.760        -19.028
   0.762        -19.028
   0.765        -19.029
   0.767        -19.029
   0.769        -19.029
   0.771        -19.030
   0.773        -19.030
   0.776        -19.030
   0.778        -19.031
   0.780        -19.031
   0.782        -19.032
   0.784        -19.033
   0.786        -19.035
   0.789        -19.036
   0.791        -19.038
   0.793        -19.039
   0.795        -19.040
   0.797        -19.042
   0.799        -19.043
   0.802        -19.045
   0.804        -19.047
   0.806        -19.049
   0.808        -19.050
   0.810        -19.052
   0.812        -19.054
   0.815        -19.057
   0.817        -19.058
   0.819        -19.060
   0.821        -19.062
   0.823        -19.064
   0.825        -19.067
   0.828        -19.069
   0.830        -19.071
   0.832        -19.073
   0.834        -19.076
   0.836        -19.078
   0.838        -19.080
   0.841        -19.082
   0.843        -19.084
   0.845        -19.087
   0.847        -19.090
   0.849        -19.092
   0.852        -19.094
   0.854        -19.097
   0.856        -19.099
   0.858        -19.102
   0.860        -19.104
   0.862        -19.107
   0.865        -19.109
   0.867        -19.112
   0.869        -19.115
   0.871        -19.117
   0.873        -19.120
   0.875        -19.123
   0.878        -19.125
   0.880        -19.128
   0.882        -19.130
   0.884        -19.133
   0.886        -19.136
   0.888        -19.139
   0.891        -19.143
   0.893        -19.146
   0.895        -19.149
   0.897        -19.152
   0.899        -19.156
   0.901        -19.159
   0.904        -19.162
   0.906        -19.165
   0.908        -19.169
   0.910        -19.174
   0.912        -19.177
   0.915        -19.181
   0.917        -19.185
   0.919        -19.189
   0.921        -19.193
   0.923        -19.197
   0.925        -19.201
   0.928        -19.205
   0.930        -19.210
   0.932        -19.215
   0.934        -19.220
   0.936        -19.225
   0.938        -19.229
   0.941        -19.234
   0.943        -19.239
   0.945        -19.244
   0.947        -19.249
   0.949        -19.255
   0.951        -19.262
   0.954        -19.268
   0.956        -19.275
   0.958        -19.282
   0.960        -19.288
   0.962        -19.295
   0.964        -19.301
   0.967        -19.308
   0.969        -19.314
   0.971        -19.319
   0.973        -19.324
   0.975        -19.329
   0.977        -19.334
   0.980        -19.339
   0.982        -19.344
   0.984        -19.349
   0.986        -19.354
   0.988        -19.364
   0.990        -19.374
   0.993        -19.380
   0.995        -19.386
   0.997        -19.392
   0.999        -19.398
   1.001        -19.404
   1.004        -19.410
   1.006        -19.415
   1.008        -19.421
   1.010        -19.429
   1.012        -19.440
   1.014        -19.451
   1.017        -19.463
   1.019        -19.474
   1.021        -19.486
   1.023        -19.498
   1.025        -19.509
   1.027        -19.521
   1.030        -19.532
   1.032        -19.548
   1.034        -19.565
   1.036        -19.581
   1.038        -19.598
   1.040        -19.615
   1.043        -19.632
   1.045        -19.649
   1.047        -19.666
   1.049        -19.683
   1.051        -19.701
   1.053        -19.728
   1.056        -19.756
   1.058        -19.784
   1.060        -19.811
   1.062        -19.839
   1.064        -19.867
   1.066        -19.895
   1.069        -19.922
   1.071        -19.950
   1.073        -19.997
   1.075        -20.061
   1.077        -20.125
   1.079        -20.189
   1.082        -20.253
   1.084        -20.318
   1.086        -20.382
   1.088        -20.446
   1.090        -20.510
   1.093        -20.577
   1.095        -20.668
   1.097        -20.766
   1.099        -20.864
   1.101        -20.962
   1.103        -21.060
   1.106        -21.158
   1.108        -21.256
   1.110        -21.354
   1.112        -21.465
   1.114        -21.524
   1.117        -21.527
   1.119        -21.530
   1.121        -21.533
   1.123        -21.536
   1.125        -21.539
   1.127        -21.542
   1.129        -21.546
   1.131        -21.549
   1.134        -21.552
   1.136        -21.555
   1.138        -21.558
   1.140        -21.561
   1.143        -21.564
   1.145        -21.567
   1.147        -21.570
   1.149        -21.573
   1.151        -21.576
   1.153        -21.579
   1.155        -21.581
   1.158        -21.584
   1.160        -21.586
   1.162        -21.589
   1.164        -21.591
   1.166        -21.593
   1.169        -21.596
   1.171        -21.598
   1.173        -21.600
   1.175        -21.603
   1.177        -21.605
   1.180        -21.608
   1.181        -21.610
   1.184        -21.613
   1.186        -21.615
   1.188        -21.618
   1.190        -21.621
   1.192        -21.623
   1.195        -21.626
   1.197        -21.628
   1.199        -21.630
   1.201        -21.633
   1.203        -21.635
   1.205        -21.638
   1.208        -21.640
   1.210        -21.642
   1.212        -21.645
   1.214        -21.647
   1.216        -21.650
   1.218        -21.652
   1.220        -21.654
   1.223        -21.657
   1.225        -21.659
   1.227        -21.662
   1.229        -21.664
   1.232        -21.667
   1.234        -21.669
   1.236        -21.671
   1.238        -21.674
   1.240        -21.675
   1.242        -21.677
   1.245        -21.678
   1.247        -21.680
   1.249        -21.681
   1.251        -21.683
   1.253        -21.685
   1.255        -21.687
   1.258        -21.688
   1.260        -21.691
   1.262        -21.692
   1.264        -21.694
   1.266        -21.696
   1.268        -21.698
   1.270        -21.700
   1.273        -21.702
   1.275        -21.704
   1.277        -21.706
   1.279        -21.708
   1.281        -21.710
   1.284        -21.713
   1.286        -21.716
   1.288        -21.718
   1.290        -21.720
   1.292        -21.723
   1.294        -21.725
   1.297        -21.727
   1.299        -21.730
   1.301        -21.733
   1.303        -21.736
   1.305        -21.739
   1.307        -21.742
   1.310        -21.745
   1.312        -21.748
   1.314        -21.751
   1.316        -21.754
   1.318        -21.757
   1.320        -21.761
   1.323        -21.764
   1.325        -21.768
   1.327        -21.773
   1.329        -21.777
   1.331        -21.781
   1.334        -21.785
   1.336        -21.789
   1.338        -21.793
   1.340        -21.797
   1.342        -21.801
   1.344        -21.807
   1.346        -21.811
   1.349        -21.816
   1.351        -21.821
   1.353        -21.826
   1.355        -21.831
   1.357        -21.836
   1.359        -21.841
   1.362        -21.846
   1.364        -21.850
   1.366        -21.855
   1.368        -21.860
   1.370        -21.864
   1.373        -21.869
   1.375        -21.874
   1.377        -21.878
   1.379        -21.883
   1.381        -21.888
   1.383        -21.891
   1.386        -21.893
   1.388        -21.895
   1.390        -21.897
   1.392        -21.899
   1.394        -21.901
   1.397        -21.903
   1.399        -21.905
   1.401        -21.907
   1.403        -21.909
   1.405        -21.911
   1.407        -21.914
   1.410        -21.916
   1.412        -21.919
   1.414        -21.921
   1.416        -21.924
   1.418        -21.927
   1.420        -21.929
   1.423        -21.932
   1.425        -21.934
   1.427        -21.937
   1.429        -21.940
   1.431        -21.943
   1.433        -21.946
   1.436        -21.949
   1.438        -21.952
   1.440        -21.955
   1.442        -21.958
   1.444        -21.961
   1.446        -21.964
   1.449        -21.967
   1.451        -21.971
   1.453        -21.974
   1.455        -21.977
   1.457        -21.981
   1.460        -21.984
   1.462        -21.987
   1.464        -21.991
   1.466        -21.994
   1.468        -21.997
   1.470        -22.000
   1.472        -22.003
   1.475        -22.006
   1.477        -22.009
   1.479        -22.012
   1.481        -22.015
   1.483        -22.018
   1.486        -22.021
   1.488        -22.023
   1.490        -22.025
   1.492        -22.026
   1.494        -22.028
   1.496        -22.030
   1.498        -22.032
   1.501        -22.033
   1.503        -22.035
   1.505        -22.037
   1.507        -22.039
   1.509        -22.038
   1.512        -22.038
   1.514        -22.037
   1.516        -22.036
   1.518        -22.036
   1.520        -22.035
   1.522        -22.034
   1.525        -22.033
   1.527        -22.033
   1.529        -22.031
   1.531        -22.026
   1.533        -22.021
   1.535        -22.016
   1.538        -22.011
   1.540        -22.007
   1.542        -22.002
   1.544        -21.997
   1.546        -21.992
   1.549        -21.987
   1.551        -21.980
   1.553        -21.971
   1.555        -21.963
   1.557        -21.955
   1.559        -21.947
   1.561        -21.938
   1.564        -21.930
   1.566        -21.922
   1.568        -21.913
   1.570        -21.905
   1.572        -21.893
   1.575        -21.881
   1.577        -21.869
   1.579        -21.857
   1.581        -21.845
   1.583        -21.832
   1.585        -21.821
   1.588        -21.809
   1.590        -21.922
   1.592        -22.228
   1.594        -22.233
   1.596        -22.237
   1.598        -22.241
   1.601        -22.245
   1.603        -22.250
   1.605        -22.254
   1.607        -22.258
   1.609        -22.262
   1.611        -22.267
   1.614        -22.273
   1.616        -22.278
   1.618        -22.284
   1.620        -22.290
   1.622        -22.296
   1.624        -22.302
   1.627        -22.308
   1.629        -22.314
   1.631        -22.320
   1.633        -22.327
   1.635        -22.334
   1.637        -22.342
   1.640        -22.350
   1.642        -22.358
   1.644        -22.366
   1.646        -22.374
   1.648        -22.381
   1.651        -22.389
   1.653        -22.397
   1.655        -22.407
   1.657        -22.419
   1.659        -22.430
   1.661        -22.442
   1.664        -22.454
   1.666        -22.465
   1.668        -22.477
   1.670        -22.488
   1.672        -22.500
   1.674        -22.513
   1.676        -22.533
   1.679        -22.554
   1.681        -22.574
   1.683        -22.595
   1.685        -22.616
   1.687        -22.637
   1.690        -22.657
   1.692        -22.678
   1.694        -22.699
   1.696        -22.747
   1.699        -22.827
   1.701        -22.897
   1.703        -22.961
   1.705        -23.025
   1.707        -23.095
   1.709        -23.164
   1.711        -23.234
   1.714        -23.310
   1.716        -23.326
   1.718        -23.355
   1.720        -23.385
   1.722        -23.422
   1.724        -23.458
   1.727        -23.494
   1.729        -23.530
   1.731        -23.566
   1.733        -23.602
   1.735        -23.638
   1.737        -23.670
   1.739        -23.696
   1.742        -23.721
   1.744        -23.746
   1.746        -23.771
   1.748        -23.796
   1.750        -23.821
   1.753        -23.846
   1.755        -23.871
   1.757        -23.895
   1.759        -23.911
   1.761        -23.923
   1.763        -23.935
   1.766        -23.948
   1.768        -23.960
   1.770        -23.973
   1.772        -23.985
   1.774        -23.998
   1.776        -24.010
   1.779        -24.020
   1.781        -24.025
   1.783        -24.030
   1.785        -24.035
   1.787        -24.039
   1.789        -24.044
   1.792        -24.049
   1.794        -24.054
   1.796        -24.058
   1.798        -24.063
   1.800        -24.066
   1.802        -24.068
   1.805        -24.069
   1.807        -24.071
   1.809        -24.073
   1.811        -24.075
   1.813        -24.077
   1.816        -24.078
   1.818        -24.080
   1.820        -24.082
   1.822        -24.082
   1.824        -24.083
   1.826        -24.084
   1.829        -24.085
   1.831        -24.086
   1.833        -24.086
   1.835        -24.087
   1.837        -24.088
   1.839        -24.089
   1.842        -24.089
   1.844        -24.090
   1.846        -24.090
   1.848        -24.091
   1.850        -24.092
   1.852        -24.092
   1.855        -24.093
   1.857        -24.093
   1.859        -24.094
   1.861        -24.095
   1.863        -24.095
   1.865        -24.095
   1.868        -24.096
   1.870        -24.096
   1.872        -24.097
   1.874        -24.097
   1.876        -24.097
   1.878        -24.098
   1.881        -24.098
   1.883        -24.099
   1.885        -24.099
   1.887        -24.100
   1.889        -24.100
   1.891        -24.101
   1.894        -24.101
   1.896        -24.102
   1.898        -24.102
   1.900        -24.102
   1.902        -24.103
   1.905        -24.103
   1.907        -24.104
   1.909        -24.104
   1.911        -24.105
   1.913        -24.105
   1.915        -24.106
   1.918        -24.106
   1.920        -24.107
   1.922        -24.107
   1.924        -24.107
   1.926        -24.108
   1.928        -24.108
   1.931        -24.109
   1.933        -24.109
   1.935        -24.110
   1.937        -24.110
   1.939        -24.111
   1.941        -24.111
   1.944        -24.112
   1.946        -24.112
   1.948        -24.113
   1.950        -24.113
   1.952        -24.113
   1.954        -24.114
   1.957        -24.114
   1.959        -24.115
   1.961        -24.115
   1.963        -24.116
   1.965        -24.116
   1.967        -24.117
   1.970        -24.117
   1.972        -24.117
   1.974        -24.118
   1.976        -24.118
   1.978        -24.119
   1.980        -24.119
   1.983        -24.120
   1.985        -24.120
   1.987        -24.121
   1.989        -24.121
   1.991        -24.121
   1.993        -24.122
   1.996        -24.122
   1.998        -24.123
   2.000        -24.123
   2.002        -24.123
   2.004        -24.124
   2.007        -24.124
   2.009        -24.125
   2.011        -24.125
   2.013        -24.126
   2.015        -24.126
   2.017        -24.126
   2.020        -24.127
   2.022        -24.127
   2.024        -24.128
   2.026        -24.128
   2.028        -24.128
   2.030        -24.129
   2.033        -24.129
   2.035        -24.129
   2.037        -24.130
   2.039        -24.130
   2.041        -24.131
   2.043        -24.131
   2.046        -24.131
   2.048        -24.131
   2.050        -24.132
   2.052        -24.132
   2.054        -24.132
   2.056        -24.133
   2.059        -24.133
   2.061        -24.133
   2.063        -24.134
   2.065        -24.134
   2.067        -24.134
   2.069        -24.135
   2.072        -24.135
   2.074        -24.135
   2.076        -24.135
   2.078        -24.136
   2.080        -24.136
   2.083        -24.136
   2.085        -24.136
   2.087        -24.137
   2.089        -24.137
   2.091        -24.137
   2.093        -24.137
   2.096        -24.138
   2.098        -24.138
   2.100        -24.139
   2.102        -24.139
   2.104        -24.139
   2.106        -24.140
   2.109        -24.140
   2.111        -24.140
   2.113        -24.140
   2.115        -24.140
   2.117        -24.141
   2.120        -24.141
   2.122        -24.140
   2.124        -24.141
   2.126        -24.140
   2.128        -24.140
   2.130        -24.140
   2.133        -24.141
   2.135        -24.141
   2.137        -24.140
   2.139        -24.140
   2.141        -24.140
   2.143        -24.140
   2.145        -24.140
   2.148        -24.140
   2.150        -24.140
   2.152        -24.140
   2.154        -24.140
   2.157        -24.140
   2.158        -24.140
   2.161        -24.140
   2.163        -24.139
   2.165        -24.139
   2.167        -24.139
   2.169        -24.139
   2.172        -24.139
   2.174        -24.139
   2.176        -24.138
   2.178        -24.138
   2.180        -24.138
   2.183        -24.138
   2.185        -24.137
   2.187        -24.137
   2.189        -24.137
   2.191        -24.136
   2.193        -24.136
   2.195        -24.136
   2.197        -24.136
   2.200        -24.135
   2.202        -24.135
   2.204        -24.135
   2.206        -24.134
   2.208        -24.134
   2.211        -24.134
   2.213        -24.134
   2.215        -24.133
   2.217        -24.133
   2.219        -24.132
   2.221        -24.132
   2.224        -24.131
   2.226        -24.131
   2.228        -24.130
   2.230        -24.130
   2.232        -24.129
   2.235        -24.129
   2.237        -24.129
   2.239        -24.128
   2.241        -24.128
   2.243        -24.127
   2.245        -24.126
   2.247        -24.126
   2.250        -24.125
   2.252        -24.125
   2.254        -24.124
   2.256        -24.124
   2.259        -24.123
   2.261        -24.123
   2.263        -24.122
   2.265        -24.121
   2.267        -24.121
   2.269        -24.120
   2.271        -24.119
   2.274        -24.118
   2.276        -24.118
   2.278        -24.117
   2.280        -24.116
   2.282        -24.116
   2.284        -24.115
   2.287        -24.114
   2.289        -24.114
   2.291        -24.113
   2.293        -24.112
   2.295        -24.111
   2.297        -24.110
   2.299        -24.109
   2.302        -24.109
   2.304        -24.108
   2.306        -24.107
   2.308        -24.106
   2.310        -24.105
   2.313        -24.104
   2.315        -24.103
   2.317        -24.103
   2.319        -24.102
   2.321        -24.101
   2.323        -24.100
   2.326        -24.099
   2.328        -24.098
   2.330        -24.097
   2.332        -24.096
   2.334        -24.095
   2.337        -24.094
   2.339        -24.093
   2.341        -24.092
   2.343        -24.091
   2.345        -24.090
   2.347        -24.089
   2.349        -24.088
   2.352        -24.087
   2.354        -24.086
   2.356        -24.084
   2.358        -24.083
   2.360        -24.082
   2.363        -24.081
   2.365        -24.080
   2.367        -24.079
   2.369        -24.078
   2.371        -24.077
   2.374        -24.076
   2.376        -24.075
   2.378        -24.073
   2.380        -24.072
   2.382        -24.071
   2.384        -24.070
   2.386        -24.069
   2.389        -24.068
   2.391        -24.067
   2.393        -24.066
   2.395        -24.065
   2.397        -24.063
   2.400        -24.062
   2.402        -24.061
   2.404        -24.061
   2.406        -24.060
   2.408        -24.060
   2.410        -24.060
   2.413        -24.059
   2.415        -24.059
   2.417        -24.059
   2.419        -24.059
   2.421        -24.058
   2.423        -24.058
   2.425        -24.058
   2.428        -24.057
   2.430        -24.057
   2.432        -24.057
   2.434        -24.056
   2.436        -24.056
   2.439        -24.056
   2.441        -24.055
   2.443        -24.055
   2.445        -24.054
   2.447        -24.053
   2.449        -24.052
   2.452        -24.051
   2.454        -24.050
   2.456        -24.049
   2.458        -24.047
   2.460        -24.046
   2.462        -24.045
   2.465        -24.044
   2.467        -24.042
   2.469        -24.041
   2.471        -24.040
   2.473        -24.039
   2.475        -24.037
   2.478        -24.036
   2.480        -24.035
   2.482        -24.034
   2.484        -24.032
   2.486        -24.031
   2.489        -24.030
   2.491        -24.028
   2.493        -24.027
   2.495        -24.026
   2.497        -24.025
   2.499        -24.023
   2.502        -24.022
   2.504        -24.021
   2.506        -24.019
   2.508        -24.018
   2.510        -24.017
   2.512        -24.016
   2.514        -24.014
   2.517        -24.013
   2.519        -24.012
   2.521        -24.011
   2.523        -24.010
   2.525        -24.008
   2.528        -24.007
   2.530        -24.006
   2.532        -24.005
   2.534        -24.004
   2.536        -24.003
   2.538        -24.002
   2.541        -24.000
   2.543        -23.999
   2.545        -23.998
   2.547        -23.997
   2.549        -23.996
   2.552        -23.995
   2.554        -23.994
   2.556        -23.993
   2.558        -23.992
   2.560        -23.991
   2.562        -23.990
   2.565        -23.989
   2.567        -23.988
   2.569        -23.987
   2.571        -23.986
   2.573        -23.985
   2.575        -23.985
   2.578        -23.984
   2.580        -23.983
   2.582        -23.982
   2.584        -23.981
   2.586        -23.981
   2.588        -23.980
   2.590        -23.979
   2.593        -23.978
   2.595        -23.978
   2.597        -23.978
   2.599        -23.977
   2.601        -23.976
   2.604        -23.976
   2.606        -23.975
   2.608        -23.975
   2.610        -23.974
   2.612        -23.974
   2.614        -23.975
   2.617        -23.975
   2.619        -23.975
   2.621        -23.975
   2.623        -23.975
   2.625        -23.975
   2.627        -23.975
   2.630        -23.975
   2.632        -23.976
   2.634        -23.977
   2.636        -23.978
   2.638        -23.980
   2.641        -23.981
   2.643        -23.982
   2.645        -23.983
   2.647        -23.985
   2.649        -23.986
   2.651        -23.988
   2.654        -23.990
   2.656        -23.994
   2.658        -23.998
   2.660        -24.001
   2.662        -24.005
   2.664        -24.008
   2.666        -24.012
   2.669        -24.016
   2.671        -24.019
   2.673        -24.023
   2.675        -24.028
   2.677        -24.035
   2.680        -24.041
   2.682        -24.047
   2.684        -24.053
   2.686        -24.059
   2.688        -24.065
   2.690        -24.071
   2.693        -24.077
   2.695        -24.083
   2.697        -24.089
   2.699        -24.096
   2.701        -24.102
   2.703        -24.108
   2.706        -24.115
   2.708        -24.121
   2.710        -24.127
   2.712        -24.134
   2.714        -24.140
   2.716        -24.146
   2.719        -24.151
   2.721        -24.157
   2.723        -24.162
   2.725        -24.168
   2.727        -24.173
   2.729        -24.178
   2.732        -24.184
   2.734        -24.189
   2.736        -24.194
   2.738        -24.199
   2.740        -24.204
   2.743        -24.209
   2.745        -24.213
   2.747        -24.218
   2.749        -24.223
   2.751        -24.228
   2.753        -24.233
   2.756        -24.237
   2.758        -24.242
   2.760        -24.246
   2.762        -24.251
   2.764        -24.255
   2.766        -24.260
   2.769        -24.264
   2.771        -24.269
   2.773        -24.273
   2.775        -24.278
   2.777        -24.282
   2.779        -24.286
   2.782        -24.290
   2.784        -24.294
   2.786        -24.299
   2.788        -24.303
   2.790        -24.307
   2.792        -24.311
   2.795        -24.315
   2.797        -24.319
   2.799        -24.323
   2.801        -24.327
   2.803        -24.331
   2.805        -24.335
   2.808        -24.339
   2.810        -24.343
   2.812        -24.346
   2.814        -24.350
   2.816        -24.354
   2.819        -24.358
   2.821        -24.362
   2.823        -24.365
   2.825        -24.369
   2.827        -24.372
   2.829        -24.376
   2.832        -24.379
   2.834        -24.383
   2.836        -24.387
   2.838        -24.390
   2.840        -24.394
   2.842        -24.397
   2.845        -24.400
   2.847        -24.403
   2.849        -24.407
   2.851        -24.410
   2.853        -24.413
   2.855        -24.416
   2.858        -24.419
   2.860        -24.422
   2.862        -24.426
   2.864        -24.428
   2.866        -24.431
   2.868        -24.434
   2.871        -24.437
   2.873        -24.440
   2.875        -24.443
   2.877        -24.446
   2.879        -24.449
   2.881        -24.452
   2.884        -24.454
   2.886        -24.457
   2.888        -24.460
   2.890        -24.463
   2.892        -24.465
   2.894        -24.468
   2.897        -24.471
   2.899        -24.474
   2.901        -24.477
   2.903        -24.479
   2.905        -24.482
   2.908        -24.484
   2.910        -24.486
   2.912        -24.488
   2.914        -24.491
   2.916        -24.493
   2.918        -24.495
   2.921        -24.498
   2.923        -24.500
   2.925        -24.502
   2.927        -24.504
   2.929        -24.506
   2.931        -24.508
   2.934        -24.510
   2.936        -24.512
   2.938        -24.514
   2.940        -24.515
   2.942        -24.517
   2.944        -24.519
   2.947        -24.521
   2.949        -24.523
   2.951        -24.524
   2.953        -24.526
   2.955        -24.528
   2.957        -24.529
   2.960        -24.531
   2.962        -24.533
   2.964        -24.534
   2.966        -24.536
   2.968        -24.537
   2.970        -24.539
   2.973        -24.540
   2.975        -24.542
   2.977        -24.543
   2.979        -24.545
   2.981        -24.547
   2.984        -24.548
   2.986        -24.550
   2.988        -24.551
   2.990        -24.552
   2.992        -24.554
   2.994        -24.555
   2.997        -24.557
   2.999        -24.558
   3.001        -24.560
   3.003        -24.561
   3.005        -24.562
   3.007        -24.564
   3.010        -24.565
   3.012        -24.566
   3.014        -24.568
   3.016        -24.569
   3.018        -24.570
   3.020        -24.572
   3.023        -24.573
   3.025        -24.574
   3.027        -24.576
   3.029        -24.577
   3.031        -24.578
   3.033        -24.580
   3.036        -24.581
   3.038        -24.583
   3.040        -24.584
   3.042        -24.585
   3.044        -24.586
   3.046        -24.588
   3.049        -24.589
   3.051        -24.590
   3.053        -24.592
   3.055        -24.593
   3.057        -24.594
   3.060        -24.596
   3.062        -24.597
   3.064        -24.598
   3.066        -24.600
   3.068        -24.601
   3.070        -24.602
   3.073        -24.603
   3.075        -24.605
   3.077        -24.606
   3.079        -24.607
   3.081        -24.608
   3.083        -24.610
   3.086        -24.611
   3.088        -24.612
   3.090        -24.613
   3.092        -24.615
   3.094        -24.616
   3.096        -24.617
   3.099        -24.618
   3.101        -24.619
   3.103        -24.620
   3.105        -24.622
   3.107        -24.623
   3.109        -24.624
   3.112        -24.625
   3.114        -24.626
   3.116        -24.627
   3.118        -24.628
   3.120        -24.629
   3.123        -24.631
   3.125        -24.632
   3.127        -24.633
   3.129        -24.634
   3.131        -24.635
   3.133        -24.636
   3.136        -24.637
   3.138        -24.638
   3.140        -24.639
   3.142        -24.640
   3.144        -24.641
   3.146        -24.642
   3.149        -24.643
   3.151        -24.644
   3.153        -24.646
   3.155        -24.647
   3.157        -24.648
   3.159        -24.649
   3.162        -24.650
   3.164        -24.651
   3.166        -24.652
   3.168        -24.653
   3.170        -24.654
   3.172        -24.656
   3.175        -24.657
   3.177        -24.658
   3.179        -24.659
   3.181        -24.660
   3.183        -24.662
   3.185        -24.663
   3.188        -24.664
   3.190        -24.665
   3.192        -24.666
   3.194        -24.667
   3.196        -24.669
   3.199        -24.670
   3.201        -24.671
   3.203        -24.672
   3.205        -24.673
   3.207        -24.675
   3.209        -24.676
   3.212        -24.677
   3.214        -24.678
   3.216        -24.680
   3.218        -24.681
   3.220        -24.682
   3.222        -24.683
   3.225        -24.684
   3.227        -24.686
   3.229        -24.687
   3.231        -24.688
   3.233        -24.689
   3.236        -24.690
   3.237        -24.692
   3.240        -24.693
   3.242        -24.694
   3.244        -24.694
   3.246        -24.695
   3.248        -24.696
   3.251        -24.697
   3.253        -24.698
   3.255        -24.699
   3.257        -24.700
   3.259        -24.701
   3.261        -24.702
   3.263        -24.702
   3.266        -24.703
   3.268        -24.704
   3.270        -24.705
   3.272        -24.705
   3.274        -24.706
   3.277        -24.707
   3.279        -24.708
   3.281        -24.708
   3.283        -24.709
   3.285        -24.710
   3.287        -24.710
   3.290        -24.711
   3.292        -24.711
   3.294        -24.712
   3.296        -24.712
   3.298        -24.713
   3.301        -24.714
   3.303        -24.716
   3.305        -24.717
   3.307        -24.718
   3.309        -24.719
   3.311        -24.721
   3.313        -24.722
   3.316        -24.723
   3.318        -24.725
   3.320        -24.726
   3.322        -24.727
   3.324        -24.728
   3.327        -24.730
   3.329        -24.731
   3.331        -24.732
   3.333        -24.733
   3.335        -24.735
   3.337        -24.736
   3.340        -24.737
   3.342        -24.738
   3.344        -24.740
   3.346        -24.741
   3.348        -24.742
   3.350        -24.744
   3.352        -24.745
   3.355        -24.746
   3.357        -24.747
   3.359        -24.749
   3.361        -24.750
   3.363        -24.751
   3.366        -24.752
   3.368        -24.754
   3.370        -24.755
   3.372        -24.756
   3.374        -24.757
   3.376        -24.758
   3.379        -24.759
   3.381        -24.761
   3.383        -24.762
   3.385        -24.763
   3.387        -24.764
   3.389        -24.765
   3.392        -24.766
   3.394        -24.767
   3.396        -24.769
   3.398        -24.770
   3.400        -24.771
   3.402        -24.771
   3.405        -24.773
   3.407        -24.774
   3.409        -24.775
   3.411        -24.776
   3.413        -24.777
   3.416        -24.778
   3.418        -24.780
   3.420        -24.780
   3.422        -24.782
   3.424        -24.783
   3.426        -24.784
   3.429        -24.785
   3.431        -24.786
   3.433        -24.787
   3.435        -24.788
   3.437        -24.789
   3.439        -24.791
   3.442        -24.791
   3.444        -24.793
   3.446        -24.794
   3.448        -24.795
   3.450        -24.796
   3.452        -24.797
   3.455        -24.798
   3.457        -24.799
   3.459        -24.800
   3.461        -24.801
   3.463        -24.802
   3.466        -24.803
   3.468        -24.805
   3.470        -24.805
   3.472        -24.806
   3.474        -24.808
   3.476        -24.809
   3.478        -24.810
   3.481        -24.811
   3.483        -24.812
   3.485        -24.813
   3.487        -24.814
   3.489        -24.815
   3.492        -24.816
   3.494        -24.817
   3.496        -24.818
   3.498        -24.819
   3.500        -24.820
   3.502        -24.821
   3.505        -24.822
   3.507        -24.823
   3.509        -24.824
   3.511        -24.825
   3.513        -24.826
   3.515        -24.827
   3.518        -24.828
   3.520        -24.829
   3.522        -24.830
   3.524        -24.831
   3.526        -24.832
   3.528        -24.833
   3.531        -24.834
   3.533        -24.835
   3.535        -24.836
   3.537        -24.837
   3.539        -24.838
   3.541        -24.839
   3.544        -24.841
   3.546        -24.841
   3.548        -24.842
   3.550        -24.843
   3.552        -24.844
   3.555        -24.845
   3.557        -24.846
   3.559        -24.847
   3.561        -24.848
   3.563        -24.849
   3.565        -24.850
   3.568        -24.851
   3.570        -24.852
   3.572        -24.853
   3.574        -24.854
   3.576        -24.855
   3.578        -24.856
   3.581        -24.857
   3.583        -24.858
   3.585        -24.859
   3.587        -24.859
   3.589        -24.860
   3.591        -24.861
   3.594        -24.862
   3.596        -24.863
   3.598        -24.864
   3.600        -24.865
   3.602        -24.866
   3.604        -24.867
   3.607        -24.868
   3.609        -24.868
   3.611        -24.869
   3.613        -24.870
   3.615        -24.871
   3.617        -24.872
   3.620        -24.873
   3.622        -24.874
   3.624        -24.874
   3.626        -24.875
   3.628        -24.876
   3.630        -24.877
   3.633        -24.878
   3.635        -24.879
   3.637        -24.879
   3.639        -24.880
   3.641        -24.881
   3.644        -24.882
   3.646        -24.883
   3.648        -24.884
   3.650        -24.884
   3.652        -24.885
   3.654        -24.886
   3.657        -24.887
   3.659        -24.888
   3.661        -24.888
   3.663        -24.889
   3.665        -24.890
   3.667        -24.891
   3.670        -24.892
   3.672        -24.892
   3.674        -24.893
   3.676        -24.894
   3.678        -24.895
   3.680        -24.896
   3.683        -24.896
   3.685        -24.897
   3.687        -24.898
   3.689        -24.899
   3.691        -24.900
   3.693        -24.900
   3.696        -24.901
   3.698        -24.902
   3.700        -24.903
   3.702        -24.903
   3.704        -24.904
   3.706        -24.905
   3.709        -24.906
   3.711        -24.907
   3.713        -24.907
   3.715        -24.908
   3.717        -24.909
   3.719        -24.910
   3.722        -24.911
   3.724        -24.911
   3.726        -24.912
   3.728        -24.913
   3.730        -24.913
   3.733        -24.914
   3.735        -24.915
   3.737        -24.916
   3.739        -24.917
   3.741        -24.918
   3.743        -24.919
   3.746        -24.920
   3.748        -24.921
   3.750        -24.921
   3.752        -24.922
   3.754        -24.923
   3.756        -24.924
   3.759        -24.925
   3.761        -24.927
   3.763        -24.928
   3.765        -24.930
   3.767        -24.931
   3.769        -24.932
   3.772        -24.933
   3.774        -24.935
   3.776        -24.936
   3.778        -24.938
   3.780        -24.940
   3.782        -24.942
   3.785        -24.944
   3.787        -24.946
   3.789        -24.948
   3.791        -24.950
   3.793        -24.952
   3.795        -24.954
   3.798        -24.956
   3.800        -24.958
   3.802        -24.960
   3.804        -24.963
   3.806        -24.965
   3.809        -24.968
   3.811        -24.970
   3.813        -24.972
   3.815        -24.975
   3.817        -24.977
   3.819        -24.980
   3.822        -24.982
   3.824        -24.984
   3.826        -24.987
   3.828        -24.989
   3.830        -24.991
   3.832        -24.993
   3.835        -24.996
   3.837        -24.998
   3.839        -25.000
   3.841        -25.002
   3.843        -25.004
   3.845        -25.005
   3.848        -25.007
   3.850        -25.008
   3.852        -25.009
   3.854        -25.011
   3.856        -25.012
   3.858        -25.014
   3.861        -25.015
   3.863        -25.016
   3.865        -25.017
   3.867        -25.018
   3.869        -25.018
   3.871        -25.019
   3.874        -25.020
   3.876        -25.020
   3.878        -25.021
   3.880        -25.022
   3.882        -25.023
   3.885        -25.024
   3.887        -25.024
   3.889        -25.025
   3.891        -25.026
   3.899        -25.029
   3.912        -25.033
   3.925        -25.038
   3.938        -25.042
   3.951        -25.046
   3.964        -25.051
   3.977        -25.055
   3.990        -25.058
   4.003        -25.062
   4.016        -25.066
   4.029        -25.070
   4.042        -25.074
   4.055        -25.078
   4.068        -25.082
   4.081        -25.086
   4.094        -25.090
   4.107        -25.094
   4.120        -25.098
   4.133        -25.102
   4.146        -25.105
   4.159        -25.108
   4.172        -25.111
   4.185        -25.114
   4.198        -25.117
   4.211        -25.120
   4.224        -25.123
   4.237        -25.126
   4.250        -25.130
   4.263        -25.134
   4.276        -25.139
   4.289        -25.144
   4.302        -25.149
   4.315        -25.155
   4.328        -25.161
   4.341        -25.168
   4.354        -25.176
   4.367        -25.184
   4.380        -25.192
   4.393        -25.201
   4.406        -25.211
   4.420        -25.221
   4.432        -25.231
   4.445        -25.241
   4.459        -25.253
   4.471        -25.264
   4.484        -25.276
   4.498        -25.287
   4.510        -25.299
   4.524        -25.312
   4.537        -25.324
   4.550        -25.337
   4.563        -25.350
   4.576        -25.364
   4.589        -25.377
   4.602        -25.391
   4.615        -25.405
   4.628        -25.419
   4.641        -25.433
   4.654        -25.448
   4.667        -25.462
   4.680        -25.477
   4.693        -25.492
   4.706        -25.507
   4.719        -25.522
   4.732        -25.537
   4.745        -25.553
   4.758        -25.568
   4.771        -25.584
   4.784        -25.600
   4.797        -25.616
   4.810        -25.632
   4.823        -25.648
   4.836        -25.665
   4.849        -25.681
   4.862        -25.698
   4.875        -25.715
   4.888        -25.732
   4.901        -25.749
   4.914        -25.766
   4.927        -25.784
   4.940        -25.801
   4.953        -25.819
   4.966        -25.837
   4.979        -25.855
   4.992        -25.874
   5.005        -25.892
   5.018        -25.910
   5.031        -25.929
   5.044        -25.948
   5.057        -25.967
   5.070        -25.986
   5.083        -26.005
   5.096        -26.025
   5.109        -26.044
   5.123        -26.064
   5.136        -26.084
   5.149        -26.103
   5.162        -26.124
   5.175        -26.144
   5.188        -26.164
   5.201        -26.184
   5.214        -26.204
   5.227        -26.224
   5.240        -26.244
   5.253        -26.264
   5.266        -26.285
   5.279        -26.305
   5.292        -26.325
   5.305        -26.345
   5.318        -26.366
   5.331        -26.386
   5.344        -26.407
   5.357        -26.428
   5.370        -26.448
   5.383        -26.469
   5.396        -26.490
   5.409        -26.512
   5.422        -26.533
   5.435        -26.555
   5.448        -26.577
   5.461        -26.599
   5.474        -26.622
   5.487        -26.644
   5.500        -26.667
   5.513        -26.690
   5.526        -26.714
   5.539        -26.737
   5.552        -26.761
   5.565        -26.786
   5.578        -26.811
   5.591        -26.835
   5.604        -26.861
   5.617        -26.886
   5.630        -26.912
   5.643        -26.939
   5.656        -26.965
   5.669        -26.992
   5.682        -27.020
   5.695        -27.048
   5.708        -27.076
   5.721        -27.105
   5.734        -27.134
   5.748        -27.164
   5.761        -27.194
   5.774        -27.225
   5.787        -27.257
   5.800        -27.289
   5.813        -27.321
   5.826        -27.354
   5.839        -27.388
   5.852        -27.422
   5.865        -27.457
   5.878        -27.493
   5.891        -27.530
   5.904        -27.567
   5.917        -27.605
   5.930        -27.644
   5.943        -27.683
   5.956        -27.723
   5.969        -27.764
   5.982        -27.806
   5.995        -27.849
   6.008        -27.893
   6.021        -27.938
   6.034        -27.983
   6.047        -28.029
   6.060        -28.078
   6.073        -28.127
   6.086        -28.176
   6.099        -28.228
   6.112        -28.280
   6.125        -28.333
   6.138        -28.388
   6.151        -28.443
   6.164        -28.501
   6.177        -28.560
   6.190        -28.619
   6.203        -28.681
   6.216        -28.744
   6.229        -28.809
   6.242        -28.875
   6.255        -28.943
   6.268        -29.012
   6.281        -29.083
   6.294        -29.156
   6.307        -29.230
   6.320        -29.306
   6.334        -29.385
   6.346        -29.466
   6.359        -29.548
   6.372        -29.633
   6.386        -29.720
   6.399        -29.809
   6.411        -29.901
   6.425        -29.994
   6.438        -30.091
   6.451        -30.190
   6.464        -30.290
   6.477        -30.393
   6.490        -30.499
   6.503        -30.610
   6.516        -30.722
   6.529        -30.836
   6.542        -30.955
   6.555        -31.078
   6.568        -31.202
   6.581        -31.331
   6.594        -31.463
   6.607        -31.601
   6.620        -31.740
   6.633        -31.881
   6.646        -32.024
   6.659        -32.175
   6.672        -32.331
   6.685        -32.489
   6.698        -32.652
   6.711        -32.820
   6.724        -32.994
   6.737        -33.171
   6.750        -33.349
   6.763        -33.540
   6.776        -33.739
   6.789        -33.935
   6.802        -34.134
   6.815        -34.338
   6.828        -34.575
   6.841        -34.835
   6.854        -35.134
   6.867        -35.762
   6.880        -36.815
   6.893        -40.557
