# log Energy    log Jnu
# (eV)          (ergs/s/cm2/Hz/Sr)
  -6.864        -20.314
  -6.820        -20.227
  -6.777        -20.140
  -6.734        -20.054
  -6.690        -19.967
  -6.647        -19.880
  -6.603        -19.793
  -6.560        -19.706
  -6.516        -19.619
  -6.473        -19.532
  -6.430        -19.446
  -6.386        -19.359
  -6.343        -19.272
  -6.299        -19.185
  -6.256        -19.098
  -6.212        -19.012
  -6.169        -18.925
  -6.126        -18.838
  -6.082        -18.751
  -6.039        -18.664
  -5.995        -18.577
  -5.952        -18.491
  -5.908        -18.404
  -5.865        -18.317
  -5.822        -18.230
  -5.778        -18.143
  -5.735        -18.056
  -5.691        -17.969
  -5.648        -17.883
  -5.605        -17.796
  -5.561        -17.709
  -5.518        -17.622
  -5.474        -17.536
  -5.431        -17.449
  -5.387        -17.362
  -5.344        -17.275
  -5.300        -17.188
  -5.257        -17.101
  -5.214        -17.015
  -5.170        -16.928
  -5.127        -16.841
  -5.083        -16.755
  -5.040        -16.668
  -4.996        -16.581
  -4.953        -16.495
  -4.910        -16.408
  -4.866        -16.322
  -4.823        -16.235
  -4.779        -16.149
  -4.736        -16.062
  -4.692        -15.976
  -4.649        -15.889
  -4.606        -15.803
  -4.562        -15.716
  -4.519        -15.630
  -4.475        -15.544
  -4.432        -15.458
  -4.388        -15.372
  -4.345        -15.286
  -4.302        -15.200
  -4.258        -15.114
  -4.215        -15.029
  -4.171        -14.943
  -4.128        -14.858
  -4.084        -14.773
  -4.041        -14.688
  -3.998        -14.603
  -3.954        -14.518
  -3.911        -14.434
  -3.867        -14.350
  -3.824        -14.266
  -3.781        -14.183
  -3.737        -14.100
  -3.693        -14.017
  -3.650        -13.935
  -3.607        -13.854
  -3.584        -13.815
  -3.582        -13.805
  -3.580        -13.803
  -3.577        -13.800
  -3.575        -13.796
  -3.573        -13.792
  -3.571        -13.788
  -3.569        -13.784
  -3.567        -13.780
  -3.564        -13.776
  -3.562        -13.772
  -3.560        -13.768
  -3.558        -13.763
  -3.556        -13.759
  -3.554        -13.755
  -3.551        -13.751
  -3.549        -13.747
  -3.547        -13.743
  -3.545        -13.739
  -3.543        -13.735
  -3.540        -13.731
  -3.538        -13.727
  -3.536        -13.723
  -3.534        -13.719
  -3.532        -13.715
  -3.530        -13.711
  -3.528        -13.707
  -3.525        -13.703
  -3.523        -13.699
  -3.521        -13.695
  -3.519        -13.691
  -3.517        -13.687
  -3.514        -13.683
  -3.512        -13.679
  -3.510        -13.675
  -3.508        -13.671
  -3.506        -13.667
  -3.504        -13.663
  -3.502        -13.659
  -3.499        -13.655
  -3.497        -13.651
  -3.495        -13.647
  -3.493        -13.643
  -3.491        -13.639
  -3.488        -13.635
  -3.486        -13.631
  -3.484        -13.627
  -3.482        -13.623
  -3.480        -13.619
  -3.477        -13.615
  -3.475        -13.611
  -3.473        -13.607
  -3.471        -13.603
  -3.469        -13.599
  -3.467        -13.595
  -3.464        -13.592
  -3.462        -13.588
  -3.460        -13.583
  -3.458        -13.579
  -3.456        -13.576
  -3.454        -13.572
  -3.451        -13.568
  -3.449        -13.564
  -3.447        -13.560
  -3.445        -13.556
  -3.443        -13.552
  -3.441        -13.548
  -3.438        -13.544
  -3.436        -13.540
  -3.434        -13.536
  -3.432        -13.532
  -3.430        -13.528
  -3.428        -13.524
  -3.425        -13.520
  -3.423        -13.517
  -3.421        -13.513
  -3.419        -13.509
  -3.417        -13.505
  -3.415        -13.501
  -3.412        -13.497
  -3.410        -13.493
  -3.408        -13.489
  -3.406        -13.485
  -3.404        -13.481
  -3.402        -13.477
  -3.399        -13.474
  -3.397        -13.470
  -3.395        -13.466
  -3.393        -13.462
  -3.391        -13.458
  -3.389        -13.454
  -3.386        -13.450
  -3.384        -13.446
  -3.382        -13.442
  -3.380        -13.439
  -3.378        -13.435
  -3.376        -13.431
  -3.373        -13.427
  -3.371        -13.423
  -3.369        -13.419
  -3.367        -13.415
  -3.365        -13.412
  -3.362        -13.408
  -3.360        -13.404
  -3.358        -13.400
  -3.356        -13.396
  -3.354        -13.392
  -3.352        -13.388
  -3.349        -13.385
  -3.347        -13.381
  -3.345        -13.377
  -3.343        -13.373
  -3.341        -13.369
  -3.339        -13.365
  -3.336        -13.362
  -3.334        -13.358
  -3.332        -13.354
  -3.330        -13.350
  -3.328        -13.346
  -3.326        -13.343
  -3.323        -13.339
  -3.321        -13.335
  -3.319        -13.331
  -3.317        -13.327
  -3.315        -13.324
  -3.313        -13.320
  -3.310        -13.316
  -3.308        -13.312
  -3.306        -13.308
  -3.304        -13.305
  -3.302        -13.301
  -3.300        -13.297
  -3.297        -13.293
  -3.295        -13.289
  -3.293        -13.286
  -3.291        -13.282
  -3.289        -13.278
  -3.287        -13.274
  -3.284        -13.271
  -3.282        -13.267
  -3.280        -13.263
  -3.278        -13.259
  -3.276        -13.256
  -3.273        -13.252
  -3.271        -13.248
  -3.269        -13.245
  -3.267        -13.241
  -3.265        -13.237
  -3.263        -13.233
  -3.260        -13.230
  -3.258        -13.226
  -3.256        -13.222
  -3.254        -13.218
  -3.252        -13.215
  -3.250        -13.211
  -3.247        -13.207
  -3.245        -13.204
  -3.243        -13.200
  -3.241        -13.196
  -3.239        -13.193
  -3.237        -13.189
  -3.234        -13.185
  -3.232        -13.181
  -3.230        -13.178
  -3.228        -13.175
  -3.226        -13.171
  -3.224        -13.167
  -3.221        -13.163
  -3.219        -13.160
  -3.217        -13.156
  -3.215        -13.153
  -3.213        -13.149
  -3.211        -13.145
  -3.208        -13.141
  -3.206        -13.138
  -3.204        -13.134
  -3.202        -13.131
  -3.200        -13.127
  -3.197        -13.124
  -3.195        -13.120
  -3.193        -13.116
  -3.191        -13.113
  -3.189        -13.109
  -3.187        -13.105
  -3.184        -13.102
  -3.182        -13.098
  -3.180        -13.095
  -3.178        -13.091
  -3.176        -13.088
  -3.174        -13.084
  -3.171        -13.080
  -3.169        -13.077
  -3.167        -13.073
  -3.165        -13.070
  -3.163        -13.066
  -3.161        -13.063
  -3.158        -13.059
  -3.156        -13.056
  -3.154        -13.052
  -3.152        -13.049
  -3.150        -13.045
  -3.148        -13.042
  -3.145        -13.038
  -3.143        -13.035
  -3.141        -13.031
  -3.139        -13.028
  -3.137        -13.024
  -3.135        -13.021
  -3.132        -13.017
  -3.130        -13.014
  -3.128        -13.010
  -3.126        -13.007
  -3.124        -13.003
  -3.122        -13.000
  -3.119        -12.996
  -3.117        -12.993
  -3.115        -12.990
  -3.113        -12.986
  -3.111        -12.983
  -3.108        -12.979
  -3.106        -12.976
  -3.104        -12.972
  -3.102        -12.969
  -3.100        -12.966
  -3.098        -12.962
  -3.095        -12.959
  -3.093        -12.955
  -3.091        -12.952
  -3.089        -12.949
  -3.087        -12.945
  -3.085        -12.942
  -3.082        -12.939
  -3.080        -12.935
  -3.078        -12.932
  -3.076        -12.929
  -3.074        -12.925
  -3.072        -12.922
  -3.069        -12.919
  -3.067        -12.915
  -3.065        -12.912
  -3.063        -12.909
  -3.061        -12.905
  -3.059        -12.902
  -3.056        -12.899
  -3.054        -12.895
  -3.052        -12.892
  -3.050        -12.889
  -3.048        -12.886
  -3.046        -12.882
  -3.043        -12.879
  -3.041        -12.876
  -3.039        -12.873
  -3.037        -12.869
  -3.035        -12.866
  -3.032        -12.863
  -3.030        -12.860
  -3.028        -12.857
  -3.026        -12.853
  -3.024        -12.850
  -3.022        -12.847
  -3.019        -12.844
  -3.017        -12.840
  -3.015        -12.837
  -3.013        -12.834
  -3.011        -12.831
  -3.009        -12.828
  -3.006        -12.825
  -3.004        -12.822
  -3.002        -12.818
  -3.000        -12.815
  -2.998        -12.812
  -2.996        -12.809
  -2.993        -12.806
  -2.991        -12.803
  -2.989        -12.800
  -2.987        -12.797
  -2.985        -12.794
  -2.983        -12.791
  -2.980        -12.788
  -2.978        -12.784
  -2.976        -12.781
  -2.974        -12.778
  -2.972        -12.775
  -2.970        -12.772
  -2.967        -12.769
  -2.965        -12.766
  -2.963        -12.763
  -2.961        -12.760
  -2.959        -12.757
  -2.956        -12.754
  -2.954        -12.751
  -2.952        -12.748
  -2.950        -12.745
  -2.948        -12.742
  -2.946        -12.740
  -2.944        -12.737
  -2.941        -12.734
  -2.939        -12.731
  -2.937        -12.728
  -2.935        -12.725
  -2.933        -12.722
  -2.930        -12.719
  -2.928        -12.716
  -2.926        -12.713
  -2.924        -12.711
  -2.922        -12.708
  -2.920        -12.705
  -2.917        -12.702
  -2.915        -12.699
  -2.913        -12.696
  -2.911        -12.694
  -2.909        -12.691
  -2.907        -12.688
  -2.904        -12.685
  -2.902        -12.682
  -2.900        -12.680
  -2.898        -12.677
  -2.896        -12.674
  -2.894        -12.671
  -2.891        -12.669
  -2.889        -12.666
  -2.887        -12.663
  -2.885        -12.661
  -2.883        -12.658
  -2.880        -12.655
  -2.878        -12.653
  -2.876        -12.650
  -2.874        -12.647
  -2.872        -12.645
  -2.870        -12.642
  -2.867        -12.640
  -2.865        -12.637
  -2.863        -12.634
  -2.861        -12.631
  -2.859        -12.629
  -2.857        -12.626
  -2.855        -12.624
  -2.852        -12.621
  -2.850        -12.619
  -2.848        -12.617
  -2.846        -12.614
  -2.843        -12.611
  -2.842        -12.609
  -2.839        -12.606
  -2.837        -12.604
  -2.835        -12.602
  -2.833        -12.599
  -2.831        -12.597
  -2.828        -12.594
  -2.826        -12.592
  -2.824        -12.589
  -2.822        -12.587
  -2.820        -12.584
  -2.817        -12.582
  -2.815        -12.580
  -2.813        -12.578
  -2.811        -12.575
  -2.809        -12.573
  -2.807        -12.570
  -2.805        -12.568
  -2.802        -12.566
  -2.800        -12.564
  -2.798        -12.562
  -2.796        -12.559
  -2.794        -12.557
  -2.792        -12.555
  -2.789        -12.552
  -2.787        -12.550
  -2.785        -12.548
  -2.783        -12.546
  -2.781        -12.544
  -2.779        -12.542
  -2.776        -12.540
  -2.774        -12.537
  -2.772        -12.535
  -2.770        -12.533
  -2.767        -12.531
  -2.765        -12.529
  -2.763        -12.527
  -2.761        -12.525
  -2.759        -12.523
  -2.757        -12.521
  -2.754        -12.519
  -2.753        -12.517
  -2.750        -12.515
  -2.748        -12.513
  -2.746        -12.511
  -2.744        -12.509
  -2.741        -12.507
  -2.739        -12.506
  -2.737        -12.503
  -2.735        -12.502
  -2.733        -12.500
  -2.731        -12.498
  -2.729        -12.496
  -2.726        -12.494
  -2.724        -12.493
  -2.722        -12.491
  -2.720        -12.489
  -2.718        -12.487
  -2.716        -12.485
  -2.713        -12.484
  -2.711        -12.482
  -2.709        -12.480
  -2.707        -12.479
  -2.705        -12.477
  -2.703        -12.475
  -2.700        -12.474
  -2.698        -12.472
  -2.696        -12.471
  -2.694        -12.469
  -2.692        -12.468
  -2.689        -12.466
  -2.687        -12.464
  -2.685        -12.463
  -2.683        -12.461
  -2.681        -12.460
  -2.679        -12.459
  -2.677        -12.457
  -2.674        -12.456
  -2.672        -12.454
  -2.670        -12.453
  -2.668        -12.452
  -2.666        -12.450
  -2.663        -12.449
  -2.661        -12.448
  -2.659        -12.446
  -2.657        -12.445
  -2.655        -12.444
  -2.653        -12.443
  -2.650        -12.441
  -2.648        -12.440
  -2.646        -12.439
  -2.644        -12.438
  -2.642        -12.437
  -2.640        -12.436
  -2.637        -12.435
  -2.635        -12.434
  -2.633        -12.433
  -2.631        -12.431
  -2.629        -12.430
  -2.626        -12.430
  -2.624        -12.428
  -2.622        -12.428
  -2.620        -12.426
  -2.618        -12.426
  -2.616        -12.425
  -2.614        -12.424
  -2.611        -12.423
  -2.609        -12.422
  -2.607        -12.421
  -2.605        -12.421
  -2.603        -12.420
  -2.600        -12.419
  -2.598        -12.418
  -2.596        -12.418
  -2.594        -12.417
  -2.592        -12.416
  -2.590        -12.416
  -2.587        -12.415
  -2.585        -12.415
  -2.583        -12.414
  -2.581        -12.413
  -2.579        -12.413
  -2.577        -12.412
  -2.574        -12.412
  -2.572        -12.412
  -2.570        -12.411
  -2.568        -12.411
  -2.566        -12.410
  -2.564        -12.410
  -2.561        -12.410
  -2.559        -12.410
  -2.557        -12.409
  -2.555        -12.409
  -2.553        -12.409
  -2.551        -12.409
  -2.548        -12.408
  -2.546        -12.408
  -2.544        -12.408
  -2.542        -12.408
  -2.540        -12.408
  -2.538        -12.408
  -2.535        -12.408
  -2.533        -12.408
  -2.531        -12.408
  -2.529        -12.408
  -2.527        -12.408
  -2.525        -12.408
  -2.522        -12.409
  -2.520        -12.409
  -2.518        -12.409
  -2.516        -12.409
  -2.514        -12.409
  -2.511        -12.410
  -2.509        -12.410
  -2.507        -12.410
  -2.505        -12.411
  -2.503        -12.411
  -2.501        -12.412
  -2.498        -12.412
  -2.496        -12.413
  -2.494        -12.413
  -2.492        -12.414
  -2.490        -12.414
  -2.488        -12.415
  -2.485        -12.416
  -2.483        -12.416
  -2.481        -12.417
  -2.479        -12.418
  -2.477        -12.419
  -2.475        -12.419
  -2.472        -12.420
  -2.470        -12.421
  -2.468        -12.422
  -2.466        -12.423
  -2.464        -12.424
  -2.462        -12.425
  -2.459        -12.426
  -2.457        -12.427
  -2.455        -12.428
  -2.453        -12.429
  -2.451        -12.430
  -2.448        -12.432
  -2.446        -12.433
  -2.444        -12.434
  -2.442        -12.435
  -2.440        -12.437
  -2.438        -12.438
  -2.435        -12.439
  -2.433        -12.441
  -2.431        -12.443
  -2.429        -12.444
  -2.427        -12.446
  -2.425        -12.447
  -2.422        -12.449
  -2.420        -12.451
  -2.418        -12.452
  -2.416        -12.454
  -2.414        -12.456
  -2.412        -12.457
  -2.409        -12.459
  -2.407        -12.461
  -2.405        -12.463
  -2.403        -12.465
  -2.401        -12.467
  -2.398        -12.469
  -2.396        -12.471
  -2.394        -12.473
  -2.392        -12.476
  -2.390        -12.478
  -2.388        -12.480
  -2.386        -12.482
  -2.383        -12.485
  -2.381        -12.487
  -2.379        -12.489
  -2.377        -12.492
  -2.375        -12.494
  -2.372        -12.497
  -2.370        -12.499
  -2.368        -12.502
  -2.366        -12.505
  -2.364        -12.508
  -2.362        -12.510
  -2.359        -12.513
  -2.357        -12.516
  -2.355        -12.519
  -2.353        -12.522
  -2.351        -12.525
  -2.349        -12.528
  -2.346        -12.531
  -2.344        -12.534
  -2.342        -12.537
  -2.340        -12.540
  -2.338        -12.543
  -2.336        -12.547
  -2.333        -12.550
  -2.331        -12.553
  -2.329        -12.557
  -2.327        -12.560
  -2.325        -12.564
  -2.323        -12.567
  -2.320        -12.571
  -2.318        -12.575
  -2.316        -12.578
  -2.314        -12.582
  -2.312        -12.586
  -2.309        -12.590
  -2.307        -12.594
  -2.305        -12.598
  -2.303        -12.602
  -2.301        -12.606
  -2.299        -12.610
  -2.297        -12.614
  -2.294        -12.618
  -2.292        -12.623
  -2.290        -12.627
  -2.288        -12.631
  -2.286        -12.636
  -2.283        -12.640
  -2.281        -12.645
  -2.279        -12.649
  -2.277        -12.654
  -2.275        -12.659
  -2.273        -12.663
  -2.270        -12.668
  -2.268        -12.673
  -2.266        -12.678
  -2.264        -12.683
  -2.262        -12.688
  -2.260        -12.693
  -2.257        -12.698
  -2.255        -12.703
  -2.253        -12.709
  -2.251        -12.714
  -2.249        -12.719
  -2.247        -12.725
  -2.244        -12.730
  -2.242        -12.736
  -2.240        -12.741
  -2.238        -12.747
  -2.236        -12.753
  -2.234        -12.759
  -2.231        -12.764
  -2.229        -12.770
  -2.227        -12.776
  -2.225        -12.782
  -2.223        -12.788
  -2.220        -12.795
  -2.218        -12.801
  -2.216        -12.807
  -2.214        -12.814
  -2.212        -12.820
  -2.210        -12.826
  -2.207        -12.833
  -2.205        -12.839
  -2.203        -12.846
  -2.201        -12.853
  -2.199        -12.860
  -2.197        -12.867
  -2.194        -12.873
  -2.192        -12.880
  -2.190        -12.888
  -2.188        -12.895
  -2.186        -12.902
  -2.184        -12.909
  -2.181        -12.916
  -2.179        -12.924
  -2.177        -12.931
  -2.175        -12.939
  -2.173        -12.947
  -2.171        -12.954
  -2.168        -12.962
  -2.166        -12.970
  -2.164        -12.978
  -2.162        -12.986
  -2.160        -12.994
  -2.158        -13.002
  -2.155        -13.010
  -2.153        -13.018
  -2.151        -13.026
  -2.149        -13.035
  -2.147        -13.043
  -2.145        -13.052
  -2.142        -13.060
  -2.140        -13.069
  -2.138        -13.078
  -2.136        -13.087
  -2.134        -13.096
  -2.131        -13.105
  -2.129        -13.114
  -2.127        -13.123
  -2.125        -13.132
  -2.123        -13.141
  -2.121        -13.151
  -2.118        -13.160
  -2.116        -13.170
  -2.114        -13.179
  -2.112        -13.189
  -2.110        -13.199
  -2.108        -13.209
  -2.105        -13.219
  -2.103        -13.229
  -2.101        -13.239
  -2.099        -13.249
  -2.097        -13.259
  -2.095        -13.270
  -2.092        -13.280
  -2.090        -13.291
  -2.088        -13.301
  -2.086        -13.312
  -2.084        -13.323
  -2.082        -13.334
  -2.079        -13.345
  -2.077        -13.356
  -2.075        -13.367
  -2.073        -13.378
  -2.071        -13.389
  -2.069        -13.401
  -2.066        -13.412
  -2.064        -13.424
  -2.062        -13.436
  -2.060        -13.447
  -2.058        -13.459
  -2.056        -13.471
  -2.053        -13.483
  -2.051        -13.495
  -2.049        -13.508
  -2.047        -13.520
  -2.045        -13.533
  -2.043        -13.545
  -2.040        -13.558
  -2.038        -13.570
  -2.036        -13.583
  -2.034        -13.596
  -2.032        -13.609
  -2.029        -13.622
  -2.027        -13.635
  -2.025        -13.649
  -2.023        -13.662
  -2.021        -13.675
  -2.019        -13.689
  -2.016        -13.703
  -2.014        -13.717
  -2.012        -13.730
  -2.010        -13.744
  -2.008        -13.758
  -2.006        -13.773
  -2.003        -13.787
  -2.001        -13.801
  -1.999        -13.816
  -1.997        -13.831
  -1.995        -13.845
  -1.993        -13.860
  -1.990        -13.875
  -1.988        -13.890
  -1.986        -13.905
  -1.984        -13.920
  -1.982        -13.936
  -1.980        -13.951
  -1.977        -13.967
  -1.975        -13.983
  -1.973        -13.999
  -1.971        -14.014
  -1.969        -14.031
  -1.967        -14.047
  -1.964        -14.063
  -1.962        -14.079
  -1.960        -14.096
  -1.958        -14.112
  -1.956        -14.129
  -1.953        -14.146
  -1.951        -14.163
  -1.949        -14.180
  -1.947        -14.197
  -1.945        -14.214
  -1.943        -14.232
  -1.940        -14.250
  -1.938        -14.267
  -1.936        -14.285
  -1.934        -14.303
  -1.932        -14.321
  -1.930        -14.339
  -1.927        -14.357
  -1.925        -14.376
  -1.923        -14.394
  -1.921        -14.413
  -1.919        -14.432
  -1.917        -14.451
  -1.914        -14.470
  -1.912        -14.489
  -1.910        -14.508
  -1.908        -14.528
  -1.906        -14.547
  -1.904        -14.567
  -1.901        -14.587
  -1.899        -14.607
  -1.897        -14.627
  -1.895        -14.647
  -1.893        -14.667
  -1.891        -14.688
  -1.888        -14.708
  -1.886        -14.729
  -1.884        -14.750
  -1.882        -14.771
  -1.880        -14.792
  -1.877        -14.814
  -1.875        -14.835
  -1.873        -14.856
  -1.871        -14.878
  -1.869        -14.900
  -1.867        -14.922
  -1.864        -14.944
  -1.862        -14.966
  -1.860        -14.989
  -1.858        -15.012
  -1.856        -15.034
  -1.853        -15.057
  -1.851        -15.080
  -1.849        -15.103
  -1.847        -15.127
  -1.845        -15.150
  -1.843        -15.174
  -1.841        -15.197
  -1.838        -15.222
  -1.836        -15.246
  -1.834        -15.270
  -1.832        -15.294
  -1.830        -15.318
  -1.828        -15.343
  -1.825        -15.368
  -1.823        -15.393
  -1.821        -15.418
  -1.819        -15.444
  -1.817        -15.469
  -1.815        -15.495
  -1.812        -15.521
  -1.810        -15.547
  -1.808        -15.573
  -1.806        -15.599
  -1.804        -15.626
  -1.801        -15.652
  -1.799        -15.679
  -1.797        -15.706
  -1.795        -15.733
  -1.793        -15.760
  -1.791        -15.788
  -1.788        -15.815
  -1.786        -15.843
  -1.784        -15.871
  -1.782        -15.899
  -1.780        -15.927
  -1.777        -15.956
  -1.775        -15.984
  -1.773        -16.013
  -1.771        -16.042
  -1.769        -16.072
  -1.767        -16.101
  -1.764        -16.130
  -1.763        -16.160
  -1.760        -16.190
  -1.758        -16.220
  -1.756        -16.250
  -1.754        -16.280
  -1.752        -16.311
  -1.749        -16.342
  -1.747        -16.373
  -1.745        -16.404
  -1.743        -16.435
  -1.741        -16.466
  -1.739        -16.498
  -1.736        -16.530
  -1.734        -16.562
  -1.732        -16.594
  -1.730        -16.627
  -1.728        -16.659
  -1.726        -16.692
  -1.723        -16.725
  -1.721        -16.759
  -1.719        -16.792
  -1.717        -16.825
  -1.715        -16.859
  -1.713        -16.892
  -1.710        -16.927
  -1.708        -16.961
  -1.706        -16.995
  -1.704        -17.029
  -1.702        -17.064
  -1.699        -17.099
  -1.697        -17.134
  -1.695        -17.169
  -1.693        -17.205
  -1.691        -17.240
  -1.689        -17.276
  -1.686        -17.312
  -1.684        -17.347
  -1.682        -17.383
  -1.680        -17.420
  -1.678        -17.456
  -1.675        -17.492
  -1.673        -17.529
  -1.671        -17.565
  -1.669        -17.602
  -1.667        -17.638
  -1.665        -17.675
  -1.663        -17.712
  -1.660        -17.748
  -1.658        -17.785
  -1.656        -17.822
  -1.654        -17.859
  -1.652        -17.895
  -1.650        -17.932
  -1.647        -17.968
  -1.645        -18.004
  -1.643        -18.040
  -1.641        -18.076
  -1.639        -18.111
  -1.637        -18.146
  -1.634        -18.181
  -1.632        -18.215
  -1.630        -18.249
  -1.628        -18.282
  -1.626        -18.315
  -1.623        -18.348
  -1.621        -18.379
  -1.619        -18.410
  -1.617        -18.440
  -1.615        -18.469
  -1.613        -18.498
  -1.611        -18.525
  -1.608        -18.552
  -1.606        -18.578
  -1.604        -18.602
  -1.602        -18.626
  -1.600        -18.649
  -1.597        -18.670
  -1.595        -18.690
  -1.593        -18.710
  -1.591        -18.728
  -1.589        -18.746
  -1.587        -18.762
  -1.584        -18.777
  -1.582        -18.791
  -1.580        -18.804
  -1.578        -18.817
  -1.576        -18.828
  -1.573        -18.839
  -1.571        -18.849
  -1.569        -18.858
  -1.567        -18.866
  -1.565        -18.874
  -1.563        -18.881
  -1.561        -18.887
  -1.558        -18.893
  -1.556        -18.899
  -1.554        -18.904
  -1.552        -18.908
  -1.550        -18.913
  -1.547        -18.917
  -1.545        -18.920
  -1.543        -18.923
  -1.541        -18.926
  -1.539        -18.929
  -1.537        -18.932
  -1.534        -18.934
  -1.532        -18.936
  -1.530        -18.939
  -1.528        -18.941
  -1.526        -18.942
  -1.524        -18.944
  -1.522        -18.945
  -1.519        -18.947
  -1.517        -18.949
  -1.515        -18.950
  -1.513        -18.951
  -1.511        -18.952
  -1.508        -18.954
  -1.506        -18.955
  -1.504        -18.956
  -1.502        -18.957
  -1.500        -18.958
  -1.498        -18.959
  -1.495        -18.960
  -1.493        -18.961
  -1.491        -18.962
  -1.489        -18.963
  -1.487        -18.964
  -1.484        -18.965
  -1.482        -18.965
  -1.480        -18.966
  -1.478        -18.967
  -1.476        -18.968
  -1.474        -18.969
  -1.472        -18.970
  -1.469        -18.970
  -1.467        -18.971
  -1.465        -18.972
  -1.463        -18.973
  -1.461        -18.974
  -1.458        -18.975
  -1.456        -18.976
  -1.454        -18.977
  -1.452        -18.977
  -1.450        -18.978
  -1.448        -18.979
  -1.445        -18.980
  -1.443        -18.981
  -1.441        -18.981
  -1.439        -18.982
  -1.437        -18.983
  -1.435        -18.984
  -1.432        -18.985
  -1.430        -18.985
  -1.428        -18.986
  -1.426        -18.987
  -1.424        -18.988
  -1.422        -18.988
  -1.419        -18.990
  -1.417        -18.990
  -1.415        -18.991
  -1.413        -18.992
  -1.411        -18.992
  -1.409        -18.994
  -1.406        -18.994
  -1.404        -18.995
  -1.402        -18.996
  -1.400        -18.996
  -1.398        -18.997
  -1.396        -18.998
  -1.393        -18.999
  -1.391        -19.000
  -1.389        -19.001
  -1.387        -19.001
  -1.385        -19.002
  -1.383        -19.003
  -1.380        -19.004
  -1.378        -19.004
  -1.376        -19.005
  -1.374        -19.006
  -1.372        -19.007
  -1.370        -19.007
  -1.367        -19.008
  -1.365        -19.009
  -1.363        -19.010
  -1.361        -19.011
  -1.359        -19.012
  -1.356        -19.012
  -1.354        -19.013
  -1.352        -19.014
  -1.350        -19.015
  -1.348        -19.015
  -1.346        -19.016
  -1.343        -19.017
  -1.341        -19.018
  -1.339        -19.018
  -1.337        -19.019
  -1.335        -19.020
  -1.333        -19.021
  -1.330        -19.021
  -1.328        -19.022
  -1.326        -19.023
  -1.324        -19.024
  -1.322        -19.025
  -1.320        -19.025
  -1.317        -19.026
  -1.315        -19.027
  -1.313        -19.028
  -1.311        -19.028
  -1.309        -19.029
  -1.307        -19.030
  -1.304        -19.031
  -1.302        -19.031
  -1.300        -19.032
  -1.298        -19.033
  -1.296        -19.033
  -1.293        -19.035
  -1.291        -19.035
  -1.289        -19.036
  -1.287        -19.037
  -1.285        -19.037
  -1.283        -19.038
  -1.280        -19.039
  -1.278        -19.040
  -1.276        -19.040
  -1.274        -19.041
  -1.272        -19.042
  -1.270        -19.043
  -1.267        -19.044
  -1.265        -19.044
  -1.263        -19.045
  -1.261        -19.046
  -1.259        -19.047
  -1.257        -19.047
  -1.254        -19.048
  -1.252        -19.049
  -1.250        -19.050
  -1.248        -19.051
  -1.246        -19.051
  -1.243        -19.052
  -1.241        -19.053
  -1.239        -19.054
  -1.237        -19.054
  -1.235        -19.055
  -1.233        -19.056
  -1.231        -19.057
  -1.228        -19.058
  -1.226        -19.058
  -1.224        -19.059
  -1.222        -19.060
  -1.220        -19.061
  -1.217        -19.061
  -1.215        -19.062
  -1.213        -19.063
  -1.211        -19.064
  -1.209        -19.065
  -1.207        -19.065
  -1.204        -19.066
  -1.202        -19.067
  -1.200        -19.068
  -1.198        -19.069
  -1.196        -19.069
  -1.194        -19.070
  -1.191        -19.071
  -1.189        -19.072
  -1.187        -19.073
  -1.185        -19.073
  -1.183        -19.074
  -1.181        -19.075
  -1.178        -19.076
  -1.176        -19.077
  -1.174        -19.078
  -1.172        -19.079
  -1.170        -19.079
  -1.168        -19.080
  -1.165        -19.081
  -1.163        -19.082
  -1.161        -19.083
  -1.159        -19.084
  -1.157        -19.084
  -1.155        -19.085
  -1.152        -19.086
  -1.150        -19.087
  -1.148        -19.088
  -1.146        -19.089
  -1.144        -19.090
  -1.142        -19.091
  -1.139        -19.092
  -1.137        -19.093
  -1.135        -19.094
  -1.133        -19.095
  -1.131        -19.096
  -1.129        -19.096
  -1.126        -19.097
  -1.124        -19.098
  -1.122        -19.099
  -1.120        -19.100
  -1.118        -19.101
  -1.115        -19.102
  -1.113        -19.103
  -1.111        -19.104
  -1.109        -19.106
  -1.107        -19.107
  -1.105        -19.108
  -1.102        -19.109
  -1.100        -19.110
  -1.098        -19.111
  -1.096        -19.112
  -1.094        -19.113
  -1.092        -19.114
  -1.089        -19.115
  -1.087        -19.116
  -1.085        -19.118
  -1.083        -19.119
  -1.081        -19.120
  -1.079        -19.121
  -1.076        -19.122
  -1.074        -19.124
  -1.072        -19.125
  -1.070        -19.126
  -1.068        -19.127
  -1.066        -19.129
  -1.063        -19.130
  -1.061        -19.131
  -1.059        -19.133
  -1.057        -19.134
  -1.055        -19.136
  -1.052        -19.137
  -1.050        -19.138
  -1.048        -19.140
  -1.046        -19.141
  -1.044        -19.143
  -1.042        -19.144
  -1.039        -19.146
  -1.037        -19.147
  -1.035        -19.149
  -1.033        -19.151
  -1.031        -19.152
  -1.029        -19.154
  -1.026        -19.156
  -1.024        -19.158
  -1.022        -19.159
  -1.020        -19.161
  -1.018        -19.163
  -1.016        -19.165
  -1.013        -19.166
  -1.011        -19.168
  -1.009        -19.170
  -1.007        -19.172
  -1.005        -19.174
  -1.003        -19.176
  -1.000        -19.178
  -0.998        -19.180
  -0.996        -19.182
  -0.994        -19.183
  -0.992        -19.185
  -0.990        -19.187
  -0.987        -19.189
  -0.985        -19.191
  -0.983        -19.193
  -0.981        -19.195
  -0.979        -19.197
  -0.977        -19.199
  -0.974        -19.201
  -0.972        -19.202
  -0.970        -19.204
  -0.968        -19.206
  -0.966        -19.208
  -0.963        -19.210
  -0.961        -19.212
  -0.959        -19.213
  -0.957        -19.215
  -0.955        -19.217
  -0.953        -19.219
  -0.950        -19.220
  -0.948        -19.222
  -0.946        -19.224
  -0.944        -19.225
  -0.942        -19.227
  -0.940        -19.229
  -0.937        -19.230
  -0.935        -19.232
  -0.933        -19.234
  -0.931        -19.235
  -0.929        -19.237
  -0.927        -19.238
  -0.924        -19.240
  -0.922        -19.241
  -0.920        -19.243
  -0.918        -19.244
  -0.916        -19.246
  -0.914        -19.247
  -0.911        -19.248
  -0.909        -19.250
  -0.907        -19.251
  -0.905        -19.252
  -0.903        -19.254
  -0.900        -19.255
  -0.898        -19.256
  -0.896        -19.257
  -0.894        -19.259
  -0.892        -19.260
  -0.890        -19.261
  -0.887        -19.262
  -0.885        -19.264
  -0.883        -19.265
  -0.881        -19.266
  -0.879        -19.267
  -0.877        -19.268
  -0.874        -19.269
  -0.872        -19.270
  -0.870        -19.271
  -0.868        -19.272
  -0.866        -19.273
  -0.864        -19.274
  -0.862        -19.275
  -0.859        -19.276
  -0.857        -19.276
  -0.855        -19.277
  -0.853        -19.278
  -0.851        -19.279
  -0.848        -19.280
  -0.846        -19.281
  -0.844        -19.282
  -0.842        -19.282
  -0.840        -19.283
  -0.838        -19.283
  -0.835        -19.284
  -0.833        -19.285
  -0.831        -19.285
  -0.829        -19.286
  -0.827        -19.286
  -0.825        -19.287
  -0.822        -19.288
  -0.820        -19.288
  -0.818        -19.289
  -0.816        -19.289
  -0.814        -19.289
  -0.812        -19.290
  -0.809        -19.290
  -0.807        -19.291
  -0.805        -19.291
  -0.803        -19.291
  -0.801        -19.292
  -0.799        -19.292
  -0.796        -19.292
  -0.794        -19.293
  -0.792        -19.293
  -0.790        -19.293
  -0.788        -19.293
  -0.785        -19.294
  -0.783        -19.294
  -0.781        -19.294
  -0.779        -19.294
  -0.777        -19.294
  -0.774        -19.294
  -0.772        -19.294
  -0.770        -19.294
  -0.768        -19.294
  -0.766        -19.294
  -0.764        -19.294
  -0.762        -19.294
  -0.759        -19.294
  -0.757        -19.294
  -0.755        -19.293
  -0.753        -19.293
  -0.751        -19.293
  -0.748        -19.293
  -0.746        -19.293
  -0.744        -19.292
  -0.742        -19.292
  -0.740        -19.292
  -0.738        -19.292
  -0.736        -19.291
  -0.733        -19.291
  -0.731        -19.291
  -0.729        -19.290
  -0.727        -19.290
  -0.725        -19.290
  -0.723        -19.289
  -0.720        -19.289
  -0.718        -19.289
  -0.716        -19.288
  -0.714        -19.287
  -0.712        -19.287
  -0.709        -19.286
  -0.707        -19.286
  -0.705        -19.285
  -0.703        -19.285
  -0.701        -19.284
  -0.699        -19.284
  -0.697        -19.283
  -0.694        -19.282
  -0.692        -19.281
  -0.690        -19.281
  -0.688        -19.280
  -0.685        -19.279
  -0.683        -19.279
  -0.681        -19.278
  -0.679        -19.277
  -0.677        -19.277
  -0.675        -19.275
  -0.673        -19.274
  -0.670        -19.273
  -0.668        -19.272
  -0.666        -19.272
  -0.664        -19.271
  -0.662        -19.269
  -0.659        -19.269
  -0.657        -19.268
  -0.655        -19.266
  -0.653        -19.265
  -0.651        -19.264
  -0.649        -19.262
  -0.647        -19.261
  -0.644        -19.260
  -0.642        -19.258
  -0.640        -19.257
  -0.638        -19.255
  -0.636        -19.254
  -0.633        -19.252
  -0.631        -19.251
  -0.629        -19.249
  -0.627        -19.247
  -0.625        -19.246
  -0.623        -19.244
  -0.621        -19.242
  -0.618        -19.241
  -0.616        -19.239
  -0.614        -19.237
  -0.612        -19.235
  -0.610        -19.233
  -0.608        -19.231
  -0.605        -19.229
  -0.603        -19.228
  -0.601        -19.226
  -0.599        -19.224
  -0.596        -19.222
  -0.594        -19.220
  -0.592        -19.218
  -0.590        -19.216
  -0.588        -19.214
  -0.586        -19.212
  -0.584        -19.210
  -0.581        -19.208
  -0.579        -19.206
  -0.577        -19.203
  -0.575        -19.201
  -0.573        -19.199
  -0.571        -19.197
  -0.568        -19.195
  -0.566        -19.193
  -0.564        -19.191
  -0.562        -19.189
  -0.560        -19.187
  -0.557        -19.185
  -0.555        -19.183
  -0.553        -19.180
  -0.551        -19.178
  -0.549        -19.176
  -0.547        -19.174
  -0.544        -19.172
  -0.542        -19.170
  -0.540        -19.168
  -0.538        -19.166
  -0.536        -19.164
  -0.534        -19.161
  -0.531        -19.159
  -0.529        -19.157
  -0.527        -19.155
  -0.525        -19.153
  -0.523        -19.150
  -0.521        -19.148
  -0.518        -19.146
  -0.516        -19.144
  -0.514        -19.142
  -0.512        -19.140
  -0.510        -19.137
  -0.507        -19.135
  -0.505        -19.133
  -0.503        -19.131
  -0.501        -19.128
  -0.499        -19.126
  -0.497        -19.124
  -0.495        -19.122
  -0.492        -19.119
  -0.490        -19.117
  -0.488        -19.115
  -0.486        -19.113
  -0.484        -19.111
  -0.482        -19.108
  -0.479        -19.106
  -0.477        -19.104
  -0.475        -19.102
  -0.473        -19.100
  -0.471        -19.097
  -0.468        -19.095
  -0.466        -19.093
  -0.464        -19.091
  -0.462        -19.089
  -0.460        -19.087
  -0.458        -19.085
  -0.455        -19.083
  -0.453        -19.081
  -0.451        -19.079
  -0.449        -19.077
  -0.447        -19.075
  -0.445        -19.073
  -0.442        -19.071
  -0.440        -19.069
  -0.438        -19.067
  -0.436        -19.065
  -0.434        -19.063
  -0.432        -19.061
  -0.429        -19.059
  -0.427        -19.057
  -0.425        -19.055
  -0.423        -19.054
  -0.421        -19.052
  -0.419        -19.050
  -0.416        -19.048
  -0.414        -19.046
  -0.412        -19.044
  -0.410        -19.042
  -0.408        -19.040
  -0.405        -19.039
  -0.403        -19.037
  -0.401        -19.035
  -0.399        -19.033
  -0.397        -19.031
  -0.395        -19.029
  -0.392        -19.027
  -0.390        -19.026
  -0.388        -19.024
  -0.386        -19.022
  -0.384        -19.020
  -0.382        -19.018
  -0.379        -19.016
  -0.377        -19.014
  -0.375        -19.013
  -0.373        -19.011
  -0.371        -19.009
  -0.369        -19.007
  -0.366        -19.005
  -0.364        -19.003
  -0.362        -19.002
  -0.360        -19.000
  -0.358        -18.998
  -0.356        -18.996
  -0.353        -18.994
  -0.351        -18.992
  -0.349        -18.991
  -0.347        -18.989
  -0.345        -18.987
  -0.343        -18.985
  -0.340        -18.983
  -0.338        -18.982
  -0.336        -18.980
  -0.334        -18.978
  -0.332        -18.976
  -0.330        -18.974
  -0.327        -18.972
  -0.325        -18.971
  -0.323        -18.969
  -0.321        -18.967
  -0.319        -18.965
  -0.316        -18.964
  -0.314        -18.962
  -0.312        -18.960
  -0.310        -18.959
  -0.308        -18.957
  -0.306        -18.955
  -0.303        -18.953
  -0.301        -18.952
  -0.299        -18.951
  -0.297        -18.949
  -0.295        -18.948
  -0.293        -18.947
  -0.290        -18.945
  -0.288        -18.944
  -0.286        -18.943
  -0.284        -18.942
  -0.282        -18.941
  -0.280        -18.939
  -0.277        -18.939
  -0.275        -18.938
  -0.273        -18.937
  -0.271        -18.936
  -0.269        -18.935
  -0.267        -18.934
  -0.264        -18.933
  -0.262        -18.932
  -0.260        -18.931
  -0.258        -18.931
  -0.256        -18.930
  -0.253        -18.929
  -0.251        -18.928
  -0.249        -18.927
  -0.247        -18.926
  -0.245        -18.926
  -0.243        -18.925
  -0.241        -18.924
  -0.238        -18.923
  -0.236        -18.923
  -0.234        -18.922
  -0.232        -18.922
  -0.230        -18.921
  -0.227        -18.920
  -0.225        -18.920
  -0.223        -18.919
  -0.221        -18.919
  -0.219        -18.918
  -0.217        -18.918
  -0.214        -18.917
  -0.212        -18.917
  -0.210        -18.916
  -0.208        -18.916
  -0.206        -18.916
  -0.204        -18.915
  -0.201        -18.915
  -0.199        -18.914
  -0.197        -18.914
  -0.195        -18.914
  -0.193        -18.914
  -0.191        -18.914
  -0.188        -18.914
  -0.186        -18.913
  -0.184        -18.913
  -0.182        -18.913
  -0.180        -18.913
  -0.178        -18.913
  -0.175        -18.913
  -0.173        -18.913
  -0.171        -18.913
  -0.169        -18.913
  -0.167        -18.913
  -0.164        -18.914
  -0.162        -18.914
  -0.160        -18.914
  -0.158        -18.914
  -0.156        -18.914
  -0.154        -18.915
  -0.151        -18.915
  -0.149        -18.915
  -0.147        -18.916
  -0.145        -18.916
  -0.143        -18.916
  -0.141        -18.916
  -0.138        -18.917
  -0.136        -18.917
  -0.134        -18.918
  -0.132        -18.918
  -0.130        -18.918
  -0.128        -18.919
  -0.125        -18.919
  -0.123        -18.920
  -0.121        -18.920
  -0.119        -18.920
  -0.117        -18.921
  -0.115        -18.921
  -0.112        -18.921
  -0.110        -18.922
  -0.108        -18.922
  -0.106        -18.922
  -0.104        -18.922
  -0.102        -18.922
  -0.099        -18.923
  -0.097        -18.923
  -0.095        -18.923
  -0.093        -18.923
  -0.091        -18.923
  -0.089        -18.923
  -0.086        -18.924
  -0.084        -18.924
  -0.082        -18.924
  -0.080        -18.924
  -0.078        -18.924
  -0.075        -18.924
  -0.073        -18.924
  -0.071        -18.924
  -0.069        -18.924
  -0.067        -18.924
  -0.065        -18.924
  -0.063        -18.924
  -0.060        -18.925
  -0.058        -18.925
  -0.056        -18.925
  -0.054        -18.925
  -0.052        -18.925
  -0.049        -18.925
  -0.047        -18.925
  -0.045        -18.925
  -0.043        -18.925
  -0.041        -18.925
  -0.039        -18.926
  -0.036        -18.926
  -0.034        -18.926
  -0.032        -18.926
  -0.030        -18.926
  -0.028        -18.926
  -0.026        -18.926
  -0.023        -18.926
  -0.021        -18.926
  -0.019        -18.926
  -0.017        -18.926
  -0.015        -18.927
  -0.013        -18.927
  -0.010        -18.927
  -0.008        -18.927
  -0.006        -18.927
  -0.004        -18.927
  -0.002        -18.927
   0.000        -18.927
   0.003        -18.927
   0.005        -18.927
   0.007        -18.927
   0.009        -18.927
   0.011        -18.928
   0.013        -18.928
   0.016        -18.928
   0.018        -18.928
   0.020        -18.928
   0.022        -18.928
   0.024        -18.928
   0.027        -18.928
   0.029        -18.929
   0.031        -18.929
   0.033        -18.929
   0.035        -18.929
   0.037        -18.929
   0.040        -18.929
   0.042        -18.929
   0.044        -18.929
   0.046        -18.929
   0.048        -18.930
   0.050        -18.930
   0.053        -18.930
   0.055        -18.930
   0.057        -18.930
   0.059        -18.930
   0.061        -18.930
   0.063        -18.930
   0.066        -18.930
   0.068        -18.930
   0.070        -18.930
   0.072        -18.931
   0.074        -18.930
   0.076        -18.930
   0.079        -18.930
   0.081        -18.930
   0.083        -18.930
   0.085        -18.930
   0.087        -18.930
   0.089        -18.930
   0.092        -18.930
   0.094        -18.930
   0.096        -18.930
   0.098        -18.929
   0.100        -18.929
   0.103        -18.929
   0.105        -18.929
   0.107        -18.929
   0.109        -18.929
   0.111        -18.929
   0.113        -18.929
   0.116        -18.929
   0.118        -18.929
   0.120        -18.929
   0.122        -18.929
   0.124        -18.929
   0.126        -18.929
   0.128        -18.929
   0.131        -18.929
   0.133        -18.930
   0.135        -18.930
   0.137        -18.930
   0.139        -18.930
   0.142        -18.931
   0.144        -18.931
   0.146        -18.931
   0.148        -18.932
   0.150        -18.932
   0.153        -18.932
   0.155        -18.932
   0.157        -18.933
   0.159        -18.933
   0.161        -18.934
   0.163        -18.934
   0.165        -18.935
   0.168        -18.935
   0.170        -18.936
   0.172        -18.936
   0.174        -18.937
   0.176        -18.937
   0.178        -18.938
   0.181        -18.938
   0.183        -18.939
   0.185        -18.939
   0.187        -18.940
   0.189        -18.940
   0.192        -18.941
   0.194        -18.941
   0.196        -18.942
   0.198        -18.943
   0.200        -18.943
   0.202        -18.944
   0.205        -18.944
   0.207        -18.945
   0.209        -18.945
   0.211        -18.946
   0.213        -18.947
   0.215        -18.947
   0.218        -18.948
   0.220        -18.948
   0.222        -18.949
   0.224        -18.949
   0.226        -18.950
   0.229        -18.951
   0.231        -18.951
   0.233        -18.952
   0.235        -18.952
   0.237        -18.953
   0.239        -18.954
   0.241        -18.954
   0.244        -18.955
   0.246        -18.956
   0.248        -18.956
   0.250        -18.957
   0.252        -18.958
   0.254        -18.958
   0.257        -18.959
   0.259        -18.960
   0.261        -18.961
   0.263        -18.961
   0.265        -18.962
   0.267        -18.963
   0.270        -18.964
   0.272        -18.965
   0.274        -18.965
   0.276        -18.966
   0.278        -18.967
   0.281        -18.968
   0.283        -18.969
   0.285        -18.969
   0.287        -18.970
   0.289        -18.971
   0.291        -18.972
   0.293        -18.973
   0.296        -18.974
   0.298        -18.975
   0.300        -18.976
   0.302        -18.977
   0.305        -18.978
   0.307        -18.979
   0.309        -18.980
   0.311        -18.981
   0.313        -18.982
   0.315        -18.983
   0.318        -18.984
   0.320        -18.985
   0.322        -18.986
   0.324        -18.987
   0.326        -18.988
   0.328        -18.989
   0.330        -18.991
   0.333        -18.992
   0.335        -18.993
   0.337        -18.994
   0.339        -18.995
   0.341        -18.996
   0.344        -18.998
   0.346        -18.999
   0.348        -19.000
   0.350        -19.001
   0.352        -19.002
   0.354        -19.003
   0.356        -19.005
   0.359        -19.006
   0.361        -19.007
   0.363        -19.008
   0.365        -19.009
   0.367        -19.011
   0.369        -19.012
   0.372        -19.013
   0.374        -19.014
   0.376        -19.015
   0.378        -19.017
   0.380        -19.018
   0.383        -19.019
   0.385        -19.020
   0.387        -19.021
   0.389        -19.023
   0.391        -19.024
   0.393        -19.026
   0.396        -19.027
   0.398        -19.029
   0.400        -19.030
   0.402        -19.032
   0.404        -19.033
   0.406        -19.034
   0.409        -19.036
   0.411        -19.038
   0.413        -19.040
   0.415        -19.042
   0.417        -19.043
   0.420        -19.045
   0.422        -19.047
   0.424        -19.049
   0.426        -19.050
   0.428        -19.052
   0.430        -19.054
   0.432        -19.056
   0.435        -19.058
   0.437        -19.060
   0.439        -19.062
   0.441        -19.064
   0.443        -19.066
   0.446        -19.068
   0.448        -19.070
   0.450        -19.072
   0.452        -19.074
   0.454        -19.076
   0.456        -19.079
   0.459        -19.081
   0.461        -19.083
   0.463        -19.085
   0.465        -19.088
   0.467        -19.090
   0.469        -19.092
   0.472        -19.094
   0.474        -19.096
   0.476        -19.098
   0.478        -19.101
   0.480        -19.103
   0.482        -19.105
   0.485        -19.107
   0.487        -19.109
   0.489        -19.111
   0.491        -19.112
   0.493        -19.112
   0.495        -19.113
   0.498        -19.113
   0.500        -19.114
   0.502        -19.115
   0.504        -19.115
   0.506        -19.116
   0.510        -19.116
   0.512        -19.116
   0.513        -19.116
   0.515        -19.115
   0.517        -19.115
   0.519        -19.114
   0.522        -19.114
   0.524        -19.113
   0.526        -19.113
   0.528        -19.112
   0.530        -19.112
   0.532        -19.111
   0.535        -19.111
   0.537        -19.110
   0.539        -19.110
   0.541        -19.109
   0.543        -19.108
   0.545        -19.108
   0.548        -19.107
   0.550        -19.107
   0.552        -19.106
   0.554        -19.106
   0.556        -19.105
   0.558        -19.105
   0.561        -19.104
   0.563        -19.103
   0.565        -19.103
   0.567        -19.102
   0.569        -19.102
   0.572        -19.101
   0.574        -19.100
   0.576        -19.100
   0.578        -19.099
   0.580        -19.099
   0.582        -19.098
   0.585        -19.097
   0.587        -19.097
   0.589        -19.096
   0.591        -19.096
   0.593        -19.095
   0.595        -19.094
   0.598        -19.094
   0.600        -19.093
   0.602        -19.092
   0.604        -19.092
   0.606        -19.091
   0.608        -19.091
   0.611        -19.090
   0.613        -19.089
   0.615        -19.089
   0.617        -19.088
   0.619        -19.088
   0.621        -19.087
   0.624        -19.087
   0.626        -19.087
   0.628        -19.087
   0.630        -19.086
   0.632        -19.086
   0.634        -19.085
   0.637        -19.085
   0.639        -19.084
   0.641        -19.084
   0.643        -19.083
   0.645        -19.083
   0.647        -19.082
   0.650        -19.082
   0.652        -19.081
   0.654        -19.081
   0.656        -19.080
   0.658        -19.079
   0.660        -19.079
   0.663        -19.078
   0.665        -19.077
   0.667        -19.076
   0.669        -19.076
   0.671        -19.075
   0.673        -19.074
   0.676        -19.073
   0.678        -19.073
   0.680        -19.072
   0.682        -19.071
   0.684        -19.070
   0.687        -19.070
   0.689        -19.069
   0.691        -19.068
   0.693        -19.067
   0.695        -19.067
   0.697        -19.066
   0.700        -19.066
   0.702        -19.065
   0.704        -19.065
   0.706        -19.064
   0.708        -19.064
   0.710        -19.063
   0.713        -19.063
   0.715        -19.063
   0.717        -19.062
   0.719        -19.062
   0.721        -19.062
   0.723        -19.062
   0.726        -19.062
   0.728        -19.062
   0.730        -19.062
   0.732        -19.062
   0.734        -19.062
   0.736        -19.062
   0.739        -19.062
   0.741        -19.063
   0.743        -19.064
   0.745        -19.065
   0.747        -19.065
   0.750        -19.066
   0.752        -19.067
   0.754        -19.068
   0.756        -19.069
   0.758        -19.070
   0.760        -19.070
   0.762        -19.072
   0.765        -19.073
   0.767        -19.074
   0.769        -19.075
   0.771        -19.077
   0.773        -19.078
   0.776        -19.079
   0.778        -19.080
   0.780        -19.082
   0.782        -19.083
   0.784        -19.085
   0.786        -19.086
   0.789        -19.088
   0.791        -19.090
   0.793        -19.091
   0.795        -19.093
   0.797        -19.094
   0.799        -19.096
   0.802        -19.098
   0.804        -19.099
   0.806        -19.101
   0.808        -19.103
   0.810        -19.105
   0.812        -19.107
   0.815        -19.109
   0.817        -19.111
   0.819        -19.113
   0.821        -19.115
   0.823        -19.117
   0.825        -19.119
   0.828        -19.122
   0.830        -19.124
   0.832        -19.126
   0.834        -19.128
   0.836        -19.131
   0.838        -19.133
   0.841        -19.135
   0.843        -19.137
   0.845        -19.140
   0.847        -19.142
   0.849        -19.145
   0.852        -19.147
   0.854        -19.150
   0.856        -19.152
   0.858        -19.155
   0.860        -19.157
   0.862        -19.159
   0.865        -19.162
   0.867        -19.165
   0.869        -19.167
   0.871        -19.170
   0.873        -19.173
   0.875        -19.175
   0.878        -19.178
   0.880        -19.181
   0.882        -19.183
   0.884        -19.186
   0.886        -19.189
   0.888        -19.192
   0.891        -19.195
   0.893        -19.198
   0.895        -19.202
   0.897        -19.205
   0.899        -19.208
   0.901        -19.212
   0.904        -19.215
   0.906        -19.218
   0.908        -19.222
   0.910        -19.226
   0.912        -19.230
   0.915        -19.234
   0.917        -19.238
   0.919        -19.242
   0.921        -19.246
   0.923        -19.250
   0.925        -19.254
   0.928        -19.258
   0.930        -19.263
   0.932        -19.267
   0.934        -19.272
   0.936        -19.277
   0.938        -19.282
   0.941        -19.287
   0.943        -19.292
   0.945        -19.296
   0.947        -19.301
   0.949        -19.308
   0.951        -19.314
   0.954        -19.321
   0.956        -19.327
   0.958        -19.334
   0.960        -19.341
   0.962        -19.347
   0.964        -19.354
   0.967        -19.360
   0.969        -19.366
   0.971        -19.371
   0.973        -19.376
   0.975        -19.381
   0.977        -19.386
   0.980        -19.392
   0.982        -19.396
   0.984        -19.401
   0.986        -19.407
   0.988        -19.416
   0.990        -19.426
   0.993        -19.432
   0.995        -19.438
   0.997        -19.444
   0.999        -19.450
   1.001        -19.455
   1.004        -19.462
   1.006        -19.468
   1.008        -19.473
   1.010        -19.481
   1.012        -19.492
   1.014        -19.503
   1.017        -19.515
   1.019        -19.526
   1.021        -19.538
   1.023        -19.549
   1.025        -19.561
   1.027        -19.572
   1.030        -19.584
   1.032        -19.599
   1.034        -19.616
   1.036        -19.633
   1.038        -19.650
   1.040        -19.666
   1.043        -19.683
   1.045        -19.700
   1.047        -19.717
   1.049        -19.734
   1.051        -19.752
   1.053        -19.778
   1.056        -19.806
   1.058        -19.834
   1.060        -19.861
   1.062        -19.889
   1.064        -19.916
   1.066        -19.944
   1.069        -19.971
   1.071        -19.999
   1.073        -20.044
   1.075        -20.106
   1.077        -20.169
   1.079        -20.232
   1.082        -20.294
   1.084        -20.356
   1.086        -20.419
   1.088        -20.481
   1.090        -20.544
   1.093        -20.608
   1.095        -20.691
   1.097        -20.779
   1.099        -20.867
   1.101        -20.955
   1.103        -21.043
   1.106        -21.131
   1.108        -21.220
   1.110        -21.307
   1.112        -21.407
   1.114        -21.460
   1.117        -21.463
   1.119        -21.467
   1.121        -21.470
   1.123        -21.473
   1.125        -21.476
   1.127        -21.479
   1.129        -21.483
   1.131        -21.486
   1.134        -21.489
   1.136        -21.492
   1.138        -21.495
   1.140        -21.498
   1.143        -21.501
   1.145        -21.504
   1.147        -21.507
   1.149        -21.510
   1.151        -21.513
   1.153        -21.516
   1.155        -21.518
   1.158        -21.521
   1.160        -21.523
   1.162        -21.525
   1.164        -21.528
   1.166        -21.530
   1.169        -21.533
   1.171        -21.536
   1.173        -21.537
   1.175        -21.540
   1.177        -21.543
   1.180        -21.546
   1.181        -21.548
   1.184        -21.550
   1.186        -21.553
   1.188        -21.556
   1.190        -21.558
   1.192        -21.561
   1.195        -21.564
   1.197        -21.566
   1.199        -21.569
   1.201        -21.571
   1.203        -21.573
   1.205        -21.576
   1.208        -21.578
   1.210        -21.581
   1.212        -21.583
   1.214        -21.586
   1.216        -21.588
   1.218        -21.591
   1.220        -21.593
   1.223        -21.596
   1.225        -21.598
   1.227        -21.600
   1.229        -21.603
   1.232        -21.605
   1.234        -21.607
   1.236        -21.610
   1.238        -21.612
   1.240        -21.613
   1.242        -21.615
   1.245        -21.617
   1.247        -21.619
   1.249        -21.621
   1.251        -21.623
   1.253        -21.625
   1.255        -21.626
   1.258        -21.628
   1.260        -21.630
   1.262        -21.633
   1.264        -21.635
   1.266        -21.637
   1.268        -21.639
   1.270        -21.641
   1.273        -21.643
   1.275        -21.646
   1.277        -21.648
   1.279        -21.650
   1.281        -21.652
   1.284        -21.655
   1.286        -21.658
   1.288        -21.660
   1.290        -21.663
   1.292        -21.665
   1.294        -21.668
   1.297        -21.670
   1.299        -21.673
   1.301        -21.676
   1.303        -21.679
   1.305        -21.683
   1.307        -21.685
   1.310        -21.688
   1.312        -21.692
   1.314        -21.695
   1.316        -21.698
   1.318        -21.701
   1.320        -21.704
   1.323        -21.708
   1.325        -21.712
   1.327        -21.715
   1.329        -21.719
   1.331        -21.723
   1.334        -21.727
   1.336        -21.731
   1.338        -21.735
   1.340        -21.739
   1.342        -21.743
   1.344        -21.748
   1.346        -21.752
   1.349        -21.757
   1.351        -21.761
   1.353        -21.766
   1.355        -21.770
   1.357        -21.775
   1.359        -21.779
   1.362        -21.784
   1.364        -21.788
   1.366        -21.793
   1.368        -21.797
   1.370        -21.801
   1.373        -21.805
   1.375        -21.810
   1.377        -21.814
   1.379        -21.818
   1.381        -21.823
   1.383        -21.826
   1.386        -21.828
   1.388        -21.830
   1.390        -21.832
   1.392        -21.834
   1.394        -21.837
   1.397        -21.839
   1.399        -21.841
   1.401        -21.843
   1.403        -21.846
   1.405        -21.848
   1.407        -21.851
   1.410        -21.853
   1.412        -21.856
   1.414        -21.858
   1.416        -21.861
   1.418        -21.864
   1.420        -21.866
   1.423        -21.869
   1.425        -21.872
   1.427        -21.874
   1.429        -21.878
   1.431        -21.880
   1.433        -21.884
   1.436        -21.886
   1.438        -21.889
   1.440        -21.892
   1.442        -21.895
   1.444        -21.898
   1.446        -21.901
   1.449        -21.904
   1.451        -21.907
   1.453        -21.910
   1.455        -21.913
   1.457        -21.916
   1.460        -21.919
   1.462        -21.923
   1.464        -21.926
   1.466        -21.929
   1.468        -21.931
   1.470        -21.933
   1.472        -21.936
   1.475        -21.938
   1.477        -21.941
   1.479        -21.943
   1.481        -21.945
   1.483        -21.948
   1.486        -21.950
   1.488        -21.952
   1.490        -21.953
   1.492        -21.954
   1.494        -21.955
   1.496        -21.957
   1.498        -21.957
   1.501        -21.958
   1.503        -21.960
   1.505        -21.961
   1.507        -21.962
   1.509        -21.961
   1.512        -21.960
   1.514        -21.959
   1.516        -21.958
   1.518        -21.957
   1.520        -21.956
   1.522        -21.954
   1.525        -21.953
   1.527        -21.952
   1.529        -21.950
   1.531        -21.946
   1.533        -21.942
   1.535        -21.938
   1.538        -21.934
   1.540        -21.930
   1.542        -21.926
   1.544        -21.922
   1.546        -21.917
   1.549        -21.913
   1.551        -21.907
   1.553        -21.901
   1.555        -21.895
   1.557        -21.888
   1.559        -21.881
   1.561        -21.875
   1.564        -21.868
   1.566        -21.862
   1.568        -21.856
   1.570        -21.849
   1.572        -21.840
   1.575        -21.831
   1.577        -21.822
   1.579        -21.813
   1.581        -21.804
   1.583        -21.795
   1.585        -21.786
   1.588        -21.777
   1.590        -21.884
   1.592        -22.166
   1.594        -22.170
   1.596        -22.175
   1.598        -22.180
   1.601        -22.184
   1.603        -22.189
   1.605        -22.193
   1.607        -22.198
   1.609        -22.202
   1.611        -22.207
   1.614        -22.213
   1.616        -22.219
   1.618        -22.226
   1.620        -22.232
   1.622        -22.238
   1.624        -22.244
   1.627        -22.251
   1.629        -22.257
   1.631        -22.263
   1.633        -22.270
   1.635        -22.278
   1.637        -22.286
   1.640        -22.294
   1.642        -22.302
   1.644        -22.311
   1.646        -22.319
   1.648        -22.327
   1.651        -22.335
   1.653        -22.343
   1.655        -22.354
   1.657        -22.366
   1.659        -22.377
   1.661        -22.389
   1.664        -22.401
   1.666        -22.412
   1.668        -22.424
   1.670        -22.436
   1.672        -22.447
   1.674        -22.461
   1.676        -22.480
   1.679        -22.500
   1.681        -22.519
   1.683        -22.539
   1.685        -22.559
   1.687        -22.578
   1.690        -22.598
   1.692        -22.618
   1.694        -22.638
   1.696        -22.676
   1.699        -22.738
   1.701        -22.792
   1.703        -22.841
   1.705        -22.891
   1.707        -22.945
   1.709        -22.998
   1.711        -23.052
   1.714        -23.111
   1.716        -23.126
   1.718        -23.155
   1.720        -23.184
   1.722        -23.220
   1.724        -23.255
   1.727        -23.291
   1.729        -23.327
   1.731        -23.362
   1.733        -23.398
   1.735        -23.433
   1.737        -23.465
   1.739        -23.489
   1.742        -23.514
   1.744        -23.538
   1.746        -23.562
   1.748        -23.587
   1.750        -23.611
   1.753        -23.635
   1.755        -23.660
   1.757        -23.684
   1.759        -23.698
   1.761        -23.710
   1.763        -23.722
   1.766        -23.734
   1.768        -23.746
   1.770        -23.758
   1.772        -23.769
   1.774        -23.781
   1.776        -23.793
   1.779        -23.803
   1.781        -23.808
   1.783        -23.812
   1.785        -23.817
   1.787        -23.821
   1.789        -23.826
   1.792        -23.830
   1.794        -23.835
   1.796        -23.839
   1.798        -23.844
   1.800        -23.847
   1.802        -23.848
   1.805        -23.850
   1.807        -23.852
   1.809        -23.853
   1.811        -23.855
   1.813        -23.857
   1.816        -23.858
   1.818        -23.860
   1.820        -23.861
   1.822        -23.862
   1.824        -23.863
   1.826        -23.864
   1.829        -23.864
   1.831        -23.865
   1.833        -23.866
   1.835        -23.867
   1.837        -23.868
   1.839        -23.868
   1.842        -23.869
   1.844        -23.870
   1.846        -23.870
   1.848        -23.871
   1.850        -23.871
   1.852        -23.872
   1.855        -23.872
   1.857        -23.873
   1.859        -23.873
   1.861        -23.874
   1.863        -23.875
   1.865        -23.875
   1.868        -23.876
   1.870        -23.876
   1.872        -23.877
   1.874        -23.877
   1.876        -23.878
   1.878        -23.878
   1.881        -23.879
   1.883        -23.879
   1.885        -23.880
   1.887        -23.880
   1.889        -23.881
   1.891        -23.881
   1.894        -23.882
   1.896        -23.882
   1.898        -23.883
   1.900        -23.883
   1.902        -23.884
   1.905        -23.884
   1.907        -23.885
   1.909        -23.885
   1.911        -23.886
   1.913        -23.886
   1.915        -23.887
   1.918        -23.888
   1.920        -23.888
   1.922        -23.889
   1.924        -23.889
   1.926        -23.890
   1.928        -23.890
   1.931        -23.891
   1.933        -23.891
   1.935        -23.892
   1.937        -23.893
   1.939        -23.893
   1.941        -23.894
   1.944        -23.894
   1.946        -23.895
   1.948        -23.896
   1.950        -23.896
   1.952        -23.897
   1.954        -23.898
   1.957        -23.898
   1.959        -23.899
   1.961        -23.900
   1.963        -23.900
   1.965        -23.901
   1.967        -23.901
   1.970        -23.902
   1.972        -23.903
   1.974        -23.903
   1.976        -23.904
   1.978        -23.905
   1.980        -23.906
   1.983        -23.906
   1.985        -23.907
   1.987        -23.908
   1.989        -23.908
   1.991        -23.909
   1.993        -23.910
   1.996        -23.910
   1.998        -23.911
   2.000        -23.912
   2.002        -23.913
   2.004        -23.913
   2.007        -23.914
   2.009        -23.915
   2.011        -23.915
   2.013        -23.916
   2.015        -23.917
   2.017        -23.918
   2.020        -23.918
   2.022        -23.919
   2.024        -23.920
   2.026        -23.920
   2.028        -23.921
   2.030        -23.922
   2.033        -23.923
   2.035        -23.923
   2.037        -23.924
   2.039        -23.925
   2.041        -23.926
   2.043        -23.926
   2.046        -23.927
   2.048        -23.928
   2.050        -23.929
   2.052        -23.929
   2.054        -23.930
   2.056        -23.931
   2.059        -23.931
   2.061        -23.932
   2.063        -23.933
   2.065        -23.933
   2.067        -23.934
   2.069        -23.935
   2.072        -23.935
   2.074        -23.936
   2.076        -23.937
   2.078        -23.938
   2.080        -23.938
   2.083        -23.939
   2.085        -23.940
   2.087        -23.940
   2.089        -23.941
   2.091        -23.942
   2.093        -23.943
   2.096        -23.943
   2.098        -23.944
   2.100        -23.945
   2.102        -23.946
   2.104        -23.946
   2.106        -23.947
   2.109        -23.948
   2.111        -23.949
   2.113        -23.949
   2.115        -23.950
   2.117        -23.950
   2.120        -23.951
   2.122        -23.951
   2.124        -23.952
   2.126        -23.952
   2.128        -23.953
   2.130        -23.953
   2.133        -23.954
   2.135        -23.954
   2.137        -23.955
   2.139        -23.955
   2.141        -23.956
   2.143        -23.956
   2.145        -23.957
   2.148        -23.957
   2.150        -23.958
   2.152        -23.958
   2.154        -23.958
   2.157        -23.959
   2.158        -23.959
   2.161        -23.960
   2.163        -23.960
   2.165        -23.960
   2.167        -23.961
   2.169        -23.961
   2.172        -23.962
   2.174        -23.962
   2.176        -23.962
   2.178        -23.962
   2.180        -23.963
   2.183        -23.963
   2.185        -23.963
   2.187        -23.963
   2.189        -23.964
   2.191        -23.964
   2.193        -23.964
   2.195        -23.965
   2.197        -23.965
   2.200        -23.965
   2.202        -23.965
   2.204        -23.966
   2.206        -23.966
   2.208        -23.966
   2.211        -23.966
   2.213        -23.967
   2.215        -23.967
   2.217        -23.967
   2.219        -23.967
   2.221        -23.967
   2.224        -23.967
   2.226        -23.967
   2.228        -23.967
   2.230        -23.967
   2.232        -23.967
   2.235        -23.967
   2.237        -23.968
   2.239        -23.967
   2.241        -23.967
   2.243        -23.967
   2.245        -23.967
   2.247        -23.967
   2.250        -23.967
   2.252        -23.967
   2.254        -23.967
   2.256        -23.967
   2.259        -23.967
   2.261        -23.967
   2.263        -23.967
   2.265        -23.967
   2.267        -23.967
   2.269        -23.966
   2.271        -23.966
   2.274        -23.966
   2.276        -23.966
   2.278        -23.966
   2.280        -23.966
   2.282        -23.965
   2.284        -23.965
   2.287        -23.965
   2.289        -23.965
   2.291        -23.964
   2.293        -23.964
   2.295        -23.964
   2.297        -23.963
   2.299        -23.963
   2.302        -23.963
   2.304        -23.962
   2.306        -23.962
   2.308        -23.962
   2.310        -23.961
   2.313        -23.961
   2.315        -23.961
   2.317        -23.960
   2.319        -23.960
   2.321        -23.959
   2.323        -23.959
   2.326        -23.958
   2.328        -23.958
   2.330        -23.957
   2.332        -23.957
   2.334        -23.956
   2.337        -23.956
   2.339        -23.955
   2.341        -23.955
   2.343        -23.954
   2.345        -23.954
   2.347        -23.953
   2.349        -23.952
   2.352        -23.952
   2.354        -23.951
   2.356        -23.950
   2.358        -23.950
   2.360        -23.949
   2.363        -23.949
   2.365        -23.948
   2.367        -23.947
   2.369        -23.947
   2.371        -23.946
   2.374        -23.945
   2.376        -23.945
   2.378        -23.944
   2.380        -23.943
   2.382        -23.943
   2.384        -23.942
   2.386        -23.942
   2.389        -23.941
   2.391        -23.941
   2.393        -23.940
   2.395        -23.939
   2.397        -23.939
   2.400        -23.938
   2.402        -23.938
   2.404        -23.938
   2.406        -23.938
   2.408        -23.938
   2.410        -23.938
   2.413        -23.938
   2.415        -23.938
   2.417        -23.939
   2.419        -23.939
   2.421        -23.939
   2.423        -23.939
   2.425        -23.939
   2.428        -23.939
   2.430        -23.939
   2.432        -23.939
   2.434        -23.939
   2.436        -23.939
   2.439        -23.939
   2.441        -23.939
   2.443        -23.939
   2.445        -23.939
   2.447        -23.938
   2.449        -23.938
   2.452        -23.937
   2.454        -23.936
   2.456        -23.935
   2.458        -23.934
   2.460        -23.934
   2.462        -23.933
   2.465        -23.932
   2.467        -23.931
   2.469        -23.930
   2.471        -23.929
   2.473        -23.928
   2.475        -23.928
   2.478        -23.927
   2.480        -23.926
   2.482        -23.925
   2.484        -23.924
   2.486        -23.923
   2.489        -23.922
   2.491        -23.921
   2.493        -23.920
   2.495        -23.919
   2.497        -23.918
   2.499        -23.918
   2.502        -23.916
   2.504        -23.916
   2.506        -23.915
   2.508        -23.914
   2.510        -23.913
   2.512        -23.912
   2.514        -23.911
   2.517        -23.911
   2.519        -23.910
   2.521        -23.908
   2.523        -23.908
   2.525        -23.907
   2.528        -23.906
   2.530        -23.905
   2.532        -23.905
   2.534        -23.904
   2.536        -23.903
   2.538        -23.902
   2.541        -23.901
   2.543        -23.901
   2.545        -23.900
   2.547        -23.899
   2.549        -23.898
   2.552        -23.898
   2.554        -23.897
   2.556        -23.896
   2.558        -23.896
   2.560        -23.895
   2.562        -23.895
   2.565        -23.894
   2.567        -23.893
   2.569        -23.892
   2.571        -23.892
   2.573        -23.892
   2.575        -23.891
   2.578        -23.891
   2.580        -23.890
   2.582        -23.890
   2.584        -23.889
   2.586        -23.889
   2.588        -23.889
   2.590        -23.888
   2.593        -23.888
   2.595        -23.888
   2.597        -23.888
   2.599        -23.888
   2.601        -23.888
   2.604        -23.888
   2.606        -23.888
   2.608        -23.888
   2.610        -23.887
   2.612        -23.888
   2.614        -23.888
   2.617        -23.889
   2.619        -23.890
   2.621        -23.890
   2.623        -23.891
   2.625        -23.892
   2.627        -23.892
   2.630        -23.893
   2.632        -23.894
   2.634        -23.895
   2.636        -23.897
   2.638        -23.899
   2.641        -23.901
   2.643        -23.903
   2.645        -23.905
   2.647        -23.907
   2.649        -23.909
   2.651        -23.911
   2.654        -23.914
   2.656        -23.918
   2.658        -23.922
   2.660        -23.926
   2.662        -23.930
   2.664        -23.934
   2.666        -23.938
   2.669        -23.942
   2.671        -23.946
   2.673        -23.950
   2.675        -23.956
   2.677        -23.962
   2.680        -23.968
   2.682        -23.974
   2.684        -23.980
   2.686        -23.987
   2.688        -23.993
   2.690        -23.999
   2.693        -24.005
   2.695        -24.011
   2.697        -24.018
   2.699        -24.024
   2.701        -24.030
   2.703        -24.037
   2.706        -24.043
   2.708        -24.049
   2.710        -24.056
   2.712        -24.062
   2.714        -24.068
   2.716        -24.074
   2.719        -24.079
   2.721        -24.085
   2.723        -24.090
   2.725        -24.095
   2.727        -24.100
   2.729        -24.106
   2.732        -24.111
   2.734        -24.117
   2.736        -24.122
   2.738        -24.126
   2.740        -24.131
   2.743        -24.136
   2.745        -24.141
   2.747        -24.145
   2.749        -24.150
   2.751        -24.155
   2.753        -24.159
   2.756        -24.164
   2.758        -24.169
   2.760        -24.173
   2.762        -24.178
   2.764        -24.182
   2.766        -24.186
   2.769        -24.191
   2.771        -24.195
   2.773        -24.199
   2.775        -24.204
   2.777        -24.208
   2.779        -24.212
   2.782        -24.216
   2.784        -24.220
   2.786        -24.224
   2.788        -24.228
   2.790        -24.232
   2.792        -24.236
   2.795        -24.240
   2.797        -24.244
   2.799        -24.248
   2.801        -24.252
   2.803        -24.255
   2.805        -24.259
   2.808        -24.263
   2.810        -24.266
   2.812        -24.270
   2.814        -24.274
   2.816        -24.277
   2.819        -24.281
   2.821        -24.284
   2.823        -24.288
   2.825        -24.291
   2.827        -24.294
   2.829        -24.298
   2.832        -24.301
   2.834        -24.304
   2.836        -24.308
   2.838        -24.311
   2.840        -24.315
   2.842        -24.317
   2.845        -24.320
   2.847        -24.323
   2.849        -24.326
   2.851        -24.329
   2.853        -24.332
   2.855        -24.335
   2.858        -24.338
   2.860        -24.341
   2.862        -24.344
   2.864        -24.346
   2.866        -24.349
   2.868        -24.352
   2.871        -24.354
   2.873        -24.357
   2.875        -24.359
   2.877        -24.362
   2.879        -24.365
   2.881        -24.367
   2.884        -24.370
   2.886        -24.372
   2.888        -24.374
   2.890        -24.377
   2.892        -24.379
   2.894        -24.382
   2.897        -24.384
   2.899        -24.387
   2.901        -24.389
   2.903        -24.391
   2.905        -24.393
   2.908        -24.396
   2.910        -24.398
   2.912        -24.400
   2.914        -24.402
   2.916        -24.404
   2.918        -24.406
   2.921        -24.408
   2.923        -24.410
   2.925        -24.411
   2.927        -24.413
   2.929        -24.415
   2.931        -24.416
   2.934        -24.418
   2.936        -24.420
   2.938        -24.421
   2.940        -24.423
   2.942        -24.425
   2.944        -24.426
   2.947        -24.428
   2.949        -24.429
   2.951        -24.431
   2.953        -24.432
   2.955        -24.433
   2.957        -24.434
   2.960        -24.436
   2.962        -24.438
   2.964        -24.439
   2.966        -24.440
   2.968        -24.442
   2.970        -24.443
   2.973        -24.444
   2.975        -24.445
   2.977        -24.447
   2.979        -24.448
   2.981        -24.449
   2.984        -24.451
   2.986        -24.452
   2.988        -24.453
   2.990        -24.455
   2.992        -24.456
   2.994        -24.457
   2.997        -24.458
   2.999        -24.460
   3.001        -24.461
   3.003        -24.462
   3.005        -24.463
   3.007        -24.465
   3.010        -24.466
   3.012        -24.467
   3.014        -24.468
   3.016        -24.469
   3.018        -24.471
   3.020        -24.472
   3.023        -24.473
   3.025        -24.474
   3.027        -24.475
   3.029        -24.476
   3.031        -24.478
   3.033        -24.479
   3.036        -24.480
   3.038        -24.481
   3.040        -24.482
   3.042        -24.483
   3.044        -24.484
   3.046        -24.486
   3.049        -24.487
   3.051        -24.488
   3.053        -24.489
   3.055        -24.490
   3.057        -24.492
   3.060        -24.493
   3.062        -24.494
   3.064        -24.495
   3.066        -24.496
   3.068        -24.497
   3.070        -24.498
   3.073        -24.499
   3.075        -24.500
   3.077        -24.501
   3.079        -24.503
   3.081        -24.504
   3.083        -24.505
   3.086        -24.506
   3.088        -24.507
   3.090        -24.508
   3.092        -24.509
   3.094        -24.510
   3.096        -24.511
   3.099        -24.512
   3.101        -24.513
   3.103        -24.514
   3.105        -24.515
   3.107        -24.516
   3.109        -24.517
   3.112        -24.518
   3.114        -24.519
   3.116        -24.520
   3.118        -24.521
   3.120        -24.522
   3.123        -24.523
   3.125        -24.524
   3.127        -24.525
   3.129        -24.526
   3.131        -24.527
   3.133        -24.528
   3.136        -24.529
   3.138        -24.530
   3.140        -24.531
   3.142        -24.532
   3.144        -24.533
   3.146        -24.534
   3.149        -24.535
   3.151        -24.536
   3.153        -24.538
   3.155        -24.538
   3.157        -24.540
   3.159        -24.541
   3.162        -24.542
   3.164        -24.543
   3.166        -24.544
   3.168        -24.545
   3.170        -24.546
   3.172        -24.547
   3.175        -24.548
   3.177        -24.549
   3.179        -24.550
   3.181        -24.551
   3.183        -24.552
   3.185        -24.554
   3.188        -24.555
   3.190        -24.556
   3.192        -24.557
   3.194        -24.558
   3.196        -24.559
   3.199        -24.560
   3.201        -24.561
   3.203        -24.562
   3.205        -24.563
   3.207        -24.564
   3.209        -24.565
   3.212        -24.566
   3.214        -24.567
   3.216        -24.568
   3.218        -24.569
   3.220        -24.570
   3.222        -24.571
   3.225        -24.572
   3.227        -24.573
   3.229        -24.574
   3.231        -24.575
   3.233        -24.576
   3.236        -24.577
   3.237        -24.578
   3.240        -24.579
   3.242        -24.579
   3.244        -24.580
   3.246        -24.581
   3.248        -24.582
   3.251        -24.583
   3.253        -24.584
   3.255        -24.585
   3.257        -24.585
   3.259        -24.586
   3.261        -24.587
   3.263        -24.587
   3.266        -24.588
   3.268        -24.589
   3.270        -24.590
   3.272        -24.590
   3.274        -24.591
   3.277        -24.592
   3.279        -24.592
   3.281        -24.593
   3.283        -24.594
   3.285        -24.595
   3.287        -24.595
   3.290        -24.596
   3.292        -24.596
   3.294        -24.597
   3.296        -24.597
   3.298        -24.598
   3.301        -24.600
   3.303        -24.601
   3.305        -24.602
   3.307        -24.603
   3.309        -24.604
   3.311        -24.606
   3.313        -24.607
   3.316        -24.608
   3.318        -24.609
   3.320        -24.611
   3.322        -24.612
   3.324        -24.613
   3.327        -24.614
   3.329        -24.616
   3.331        -24.617
   3.333        -24.618
   3.335        -24.619
   3.337        -24.620
   3.340        -24.622
   3.342        -24.623
   3.344        -24.624
   3.346        -24.625
   3.348        -24.626
   3.350        -24.628
   3.352        -24.629
   3.355        -24.630
   3.357        -24.631
   3.359        -24.632
   3.361        -24.633
   3.363        -24.635
   3.366        -24.636
   3.368        -24.637
   3.370        -24.638
   3.372        -24.639
   3.374        -24.640
   3.376        -24.642
   3.379        -24.643
   3.381        -24.644
   3.383        -24.645
   3.385        -24.646
   3.387        -24.647
   3.389        -24.648
   3.392        -24.649
   3.394        -24.650
   3.396        -24.652
   3.398        -24.653
   3.400        -24.654
   3.402        -24.655
   3.405        -24.656
   3.407        -24.657
   3.409        -24.658
   3.411        -24.659
   3.413        -24.660
   3.416        -24.661
   3.418        -24.662
   3.420        -24.663
   3.422        -24.664
   3.424        -24.665
   3.426        -24.666
   3.429        -24.668
   3.431        -24.669
   3.433        -24.670
   3.435        -24.671
   3.437        -24.672
   3.439        -24.673
   3.442        -24.674
   3.444        -24.675
   3.446        -24.676
   3.448        -24.677
   3.450        -24.678
   3.452        -24.679
   3.455        -24.680
   3.457        -24.682
   3.459        -24.682
   3.461        -24.683
   3.463        -24.684
   3.466        -24.686
   3.468        -24.687
   3.470        -24.688
   3.472        -24.689
   3.474        -24.690
   3.476        -24.691
   3.478        -24.692
   3.481        -24.693
   3.483        -24.694
   3.485        -24.695
   3.487        -24.696
   3.489        -24.697
   3.492        -24.698
   3.494        -24.699
   3.496        -24.700
   3.498        -24.701
   3.500        -24.702
   3.502        -24.703
   3.505        -24.704
   3.507        -24.705
   3.509        -24.706
   3.511        -24.707
   3.513        -24.708
   3.515        -24.709
   3.518        -24.710
   3.520        -24.711
   3.522        -24.712
   3.524        -24.713
   3.526        -24.714
   3.528        -24.715
   3.531        -24.716
   3.533        -24.717
   3.535        -24.718
   3.537        -24.719
   3.539        -24.720
   3.541        -24.721
   3.544        -24.722
   3.546        -24.723
   3.548        -24.724
   3.550        -24.724
   3.552        -24.726
   3.555        -24.727
   3.557        -24.727
   3.559        -24.728
   3.561        -24.729
   3.563        -24.730
   3.565        -24.731
   3.568        -24.732
   3.570        -24.733
   3.572        -24.734
   3.574        -24.735
   3.576        -24.736
   3.578        -24.737
   3.581        -24.737
   3.583        -24.738
   3.585        -24.739
   3.587        -24.740
   3.589        -24.741
   3.591        -24.742
   3.594        -24.743
   3.596        -24.744
   3.598        -24.744
   3.600        -24.745
   3.602        -24.746
   3.604        -24.747
   3.607        -24.748
   3.609        -24.749
   3.611        -24.749
   3.613        -24.750
   3.615        -24.751
   3.617        -24.752
   3.620        -24.753
   3.622        -24.754
   3.624        -24.754
   3.626        -24.755
   3.628        -24.756
   3.630        -24.757
   3.633        -24.758
   3.635        -24.758
   3.637        -24.759
   3.639        -24.760
   3.641        -24.761
   3.644        -24.762
   3.646        -24.762
   3.648        -24.763
   3.650        -24.764
   3.652        -24.765
   3.654        -24.766
   3.657        -24.766
   3.659        -24.767
   3.661        -24.768
   3.663        -24.769
   3.665        -24.770
   3.667        -24.771
   3.670        -24.771
   3.672        -24.772
   3.674        -24.773
   3.676        -24.774
   3.678        -24.774
   3.680        -24.775
   3.683        -24.776
   3.685        -24.777
   3.687        -24.778
   3.689        -24.778
   3.691        -24.779
   3.693        -24.780
   3.696        -24.781
   3.698        -24.782
   3.700        -24.782
   3.702        -24.783
   3.704        -24.784
   3.706        -24.785
   3.709        -24.785
   3.711        -24.786
   3.713        -24.787
   3.715        -24.788
   3.717        -24.789
   3.719        -24.790
   3.722        -24.791
   3.724        -24.792
   3.726        -24.793
   3.728        -24.794
   3.730        -24.795
   3.733        -24.796
   3.735        -24.797
   3.737        -24.798
   3.739        -24.799
   3.741        -24.801
   3.743        -24.802
   3.746        -24.804
   3.748        -24.805
   3.750        -24.806
   3.752        -24.808
   3.754        -24.809
   3.756        -24.810
   3.759        -24.812
   3.761        -24.814
   3.763        -24.815
   3.765        -24.817
   3.767        -24.819
   3.769        -24.820
   3.772        -24.822
   3.774        -24.824
   3.776        -24.825
   3.778        -24.827
   3.780        -24.829
   3.782        -24.831
   3.785        -24.833
   3.787        -24.835
   3.789        -24.836
   3.791        -24.838
   3.793        -24.840
   3.795        -24.842
   3.798        -24.844
   3.800        -24.846
   3.802        -24.848
   3.804        -24.850
   3.806        -24.852
   3.809        -24.854
   3.811        -24.856
   3.813        -24.858
   3.815        -24.860
   3.817        -24.862
   3.819        -24.864
   3.822        -24.866
   3.824        -24.868
   3.826        -24.870
   3.828        -24.871
   3.830        -24.873
   3.832        -24.875
   3.835        -24.877
   3.837        -24.879
   3.839        -24.881
   3.841        -24.883
   3.843        -24.884
   3.845        -24.885
   3.848        -24.887
   3.850        -24.888
   3.852        -24.889
   3.854        -24.890
   3.856        -24.892
   3.858        -24.893
   3.861        -24.894
   3.863        -24.895
   3.865        -24.896
   3.867        -24.896
   3.869        -24.897
   3.871        -24.898
   3.874        -24.899
   3.876        -24.900
   3.878        -24.900
   3.880        -24.901
   3.882        -24.902
   3.885        -24.903
   3.887        -24.903
   3.889        -24.904
   3.891        -24.905
   3.899        -24.907
   3.912        -24.912
   3.925        -24.916
   3.938        -24.921
   3.951        -24.925
   3.964        -24.928
   3.977        -24.932
   3.990        -24.936
   4.003        -24.940
   4.016        -24.944
   4.029        -24.948
   4.042        -24.952
   4.055        -24.956
   4.068        -24.960
   4.081        -24.964
   4.094        -24.968
   4.107        -24.971
   4.120        -24.975
   4.133        -24.978
   4.146        -24.982
   4.159        -24.984
   4.172        -24.987
   4.185        -24.990
   4.198        -24.994
   4.211        -24.997
   4.224        -25.000
   4.237        -25.004
   4.250        -25.008
   4.263        -25.013
   4.276        -25.018
   4.289        -25.023
   4.302        -25.029
   4.315        -25.036
   4.328        -25.043
   4.341        -25.050
   4.354        -25.058
   4.367        -25.066
   4.380        -25.075
   4.393        -25.085
   4.406        -25.095
   4.420        -25.105
   4.432        -25.115
   4.445        -25.126
   4.459        -25.138
   4.471        -25.149
   4.484        -25.161
   4.498        -25.173
   4.510        -25.185
   4.524        -25.198
   4.537        -25.211
   4.550        -25.224
   4.563        -25.237
   4.576        -25.251
   4.589        -25.264
   4.602        -25.278
   4.615        -25.292
   4.628        -25.306
   4.641        -25.321
   4.654        -25.336
   4.667        -25.350
   4.680        -25.365
   4.693        -25.380
   4.706        -25.395
   4.719        -25.411
   4.732        -25.426
   4.745        -25.442
   4.758        -25.457
   4.771        -25.473
   4.784        -25.489
   4.797        -25.505
   4.810        -25.521
   4.823        -25.538
   4.836        -25.554
   4.849        -25.571
   4.862        -25.588
   4.875        -25.605
   4.888        -25.622
   4.901        -25.639
   4.914        -25.657
   4.927        -25.674
   4.940        -25.692
   4.953        -25.710
   4.966        -25.728
   4.979        -25.747
   4.992        -25.765
   5.005        -25.783
   5.018        -25.802
   5.031        -25.821
   5.044        -25.840
   5.057        -25.859
   5.070        -25.878
   5.083        -25.898
   5.096        -25.917
   5.109        -25.937
   5.123        -25.957
   5.136        -25.976
   5.149        -25.996
   5.162        -26.016
   5.175        -26.036
   5.188        -26.056
   5.201        -26.077
   5.214        -26.097
   5.227        -26.117
   5.240        -26.137
   5.253        -26.157
   5.266        -26.178
   5.279        -26.198
   5.292        -26.218
   5.305        -26.238
   5.318        -26.259
   5.331        -26.280
   5.344        -26.300
   5.357        -26.321
   5.370        -26.342
   5.383        -26.363
   5.396        -26.385
   5.409        -26.406
   5.422        -26.428
   5.435        -26.450
   5.448        -26.472
   5.461        -26.494
   5.474        -26.517
   5.487        -26.540
   5.500        -26.563
   5.513        -26.586
   5.526        -26.610
   5.539        -26.634
   5.552        -26.658
   5.565        -26.683
   5.578        -26.708
   5.591        -26.733
   5.604        -26.759
   5.617        -26.785
   5.630        -26.811
   5.643        -26.838
   5.656        -26.865
   5.669        -26.892
   5.682        -26.920
   5.695        -26.948
   5.708        -26.977
   5.721        -27.007
   5.734        -27.036
   5.748        -27.067
   5.761        -27.097
   5.774        -27.129
   5.787        -27.161
   5.800        -27.193
   5.813        -27.226
   5.826        -27.260
   5.839        -27.294
   5.852        -27.329
   5.865        -27.365
   5.878        -27.401
   5.891        -27.439
   5.904        -27.476
   5.917        -27.515
   5.930        -27.554
   5.943        -27.595
   5.956        -27.635
   5.969        -27.677
   5.982        -27.719
   5.995        -27.763
   6.008        -27.808
   6.021        -27.854
   6.034        -27.900
   6.047        -27.947
   6.060        -27.996
   6.073        -28.046
   6.086        -28.096
   6.099        -28.149
   6.112        -28.202
   6.125        -28.256
   6.138        -28.311
   6.151        -28.368
   6.164        -28.427
   6.177        -28.486
   6.190        -28.547
   6.203        -28.610
   6.216        -28.674
   6.229        -28.740
   6.242        -28.807
   6.255        -28.876
   6.268        -28.947
   6.281        -29.019
   6.294        -29.093
   6.307        -29.168
   6.320        -29.246
   6.334        -29.326
   6.346        -29.407
   6.359        -29.491
   6.372        -29.577
   6.386        -29.665
   6.399        -29.756
   6.411        -29.849
   6.425        -29.944
   6.438        -30.042
   6.451        -30.142
   6.464        -30.244
   6.477        -30.348
   6.490        -30.455
   6.503        -30.567
   6.516        -30.681
   6.529        -30.797
   6.542        -30.918
   6.555        -31.041
   6.568        -31.167
   6.581        -31.296
   6.594        -31.430
   6.607        -31.569
   6.620        -31.710
   6.633        -31.852
   6.646        -31.997
   6.659        -32.149
   6.672        -32.306
   6.685        -32.465
   6.698        -32.629
   6.711        -32.799
   6.724        -32.974
   6.737        -33.151
   6.750        -33.331
   6.763        -33.523
   6.776        -33.723
   6.789        -33.924
   6.802        -34.128
   6.815        -34.338
   6.828        -34.576
   6.841        -34.836
   6.854        -35.135
   6.867        -35.763
   6.880        -36.815
   6.893        -40.543
