# log Energy    log Jnu
# (eV)          (ergs/s/cm2/Hz/Sr)
  -6.864        -20.773
  -6.820        -20.686
  -6.777        -20.599
  -6.734        -20.512
  -6.690        -20.426
  -6.647        -20.339
  -6.603        -20.252
  -6.560        -20.165
  -6.516        -20.078
  -6.473        -19.991
  -6.430        -19.904
  -6.386        -19.818
  -6.343        -19.731
  -6.299        -19.644
  -6.256        -19.557
  -6.212        -19.470
  -6.169        -19.383
  -6.126        -19.297
  -6.082        -19.210
  -6.039        -19.123
  -5.995        -19.036
  -5.952        -18.949
  -5.908        -18.863
  -5.865        -18.776
  -5.822        -18.689
  -5.778        -18.602
  -5.735        -18.516
  -5.691        -18.429
  -5.648        -18.342
  -5.605        -18.255
  -5.561        -18.169
  -5.518        -18.082
  -5.474        -17.995
  -5.431        -17.909
  -5.387        -17.822
  -5.344        -17.736
  -5.300        -17.649
  -5.257        -17.562
  -5.214        -17.476
  -5.170        -17.389
  -5.127        -17.303
  -5.083        -17.217
  -5.040        -17.130
  -4.996        -17.044
  -4.953        -16.958
  -4.910        -16.872
  -4.866        -16.786
  -4.823        -16.700
  -4.779        -16.614
  -4.736        -16.528
  -4.692        -16.442
  -4.649        -16.357
  -4.606        -16.271
  -4.562        -16.186
  -4.519        -16.101
  -4.475        -16.016
  -4.432        -15.932
  -4.388        -15.847
  -4.345        -15.763
  -4.302        -15.679
  -4.258        -15.595
  -4.215        -15.512
  -4.171        -15.429
  -4.128        -15.347
  -4.084        -15.265
  -4.041        -15.183
  -3.998        -15.103
  -3.954        -15.023
  -3.911        -14.943
  -3.867        -14.864
  -3.824        -14.787
  -3.781        -14.710
  -3.737        -14.635
  -3.693        -14.561
  -3.650        -14.488
  -3.607        -14.417
  -3.584        -14.385
  -3.582        -14.376
  -3.580        -14.374
  -3.577        -14.371
  -3.575        -14.368
  -3.573        -14.365
  -3.571        -14.361
  -3.569        -14.358
  -3.567        -14.354
  -3.564        -14.351
  -3.562        -14.348
  -3.560        -14.344
  -3.558        -14.341
  -3.556        -14.337
  -3.554        -14.334
  -3.551        -14.331
  -3.549        -14.327
  -3.547        -14.324
  -3.545        -14.320
  -3.543        -14.317
  -3.540        -14.314
  -3.538        -14.310
  -3.536        -14.307
  -3.534        -14.304
  -3.532        -14.300
  -3.530        -14.297
  -3.528        -14.294
  -3.525        -14.290
  -3.523        -14.287
  -3.521        -14.284
  -3.519        -14.280
  -3.517        -14.277
  -3.514        -14.274
  -3.512        -14.271
  -3.510        -14.267
  -3.508        -14.264
  -3.506        -14.261
  -3.504        -14.257
  -3.502        -14.254
  -3.499        -14.251
  -3.497        -14.248
  -3.495        -14.244
  -3.493        -14.241
  -3.491        -14.238
  -3.488        -14.235
  -3.486        -14.232
  -3.484        -14.228
  -3.482        -14.225
  -3.480        -14.222
  -3.477        -14.219
  -3.475        -14.216
  -3.473        -14.212
  -3.471        -14.209
  -3.469        -14.206
  -3.467        -14.203
  -3.464        -14.200
  -3.462        -14.197
  -3.460        -14.194
  -3.458        -14.190
  -3.456        -14.187
  -3.454        -14.184
  -3.451        -14.181
  -3.449        -14.178
  -3.447        -14.175
  -3.445        -14.172
  -3.443        -14.169
  -3.441        -14.166
  -3.438        -14.163
  -3.436        -14.160
  -3.434        -14.157
  -3.432        -14.154
  -3.430        -14.150
  -3.428        -14.148
  -3.425        -14.144
  -3.423        -14.141
  -3.421        -14.138
  -3.419        -14.135
  -3.417        -14.132
  -3.415        -14.129
  -3.412        -14.126
  -3.410        -14.124
  -3.408        -14.121
  -3.406        -14.118
  -3.404        -14.115
  -3.402        -14.112
  -3.399        -14.109
  -3.397        -14.106
  -3.395        -14.103
  -3.393        -14.100
  -3.391        -14.097
  -3.389        -14.094
  -3.386        -14.092
  -3.384        -14.089
  -3.382        -14.086
  -3.380        -14.083
  -3.378        -14.080
  -3.376        -14.077
  -3.373        -14.074
  -3.371        -14.072
  -3.369        -14.069
  -3.367        -14.066
  -3.365        -14.063
  -3.362        -14.061
  -3.360        -14.057
  -3.358        -14.055
  -3.356        -14.052
  -3.354        -14.049
  -3.352        -14.047
  -3.349        -14.044
  -3.347        -14.041
  -3.345        -14.039
  -3.343        -14.036
  -3.341        -14.033
  -3.339        -14.030
  -3.336        -14.028
  -3.334        -14.025
  -3.332        -14.023
  -3.330        -14.020
  -3.328        -14.017
  -3.326        -14.015
  -3.323        -14.012
  -3.321        -14.009
  -3.319        -14.007
  -3.317        -14.004
  -3.315        -14.002
  -3.313        -13.999
  -3.310        -13.997
  -3.308        -13.994
  -3.306        -13.992
  -3.304        -13.989
  -3.302        -13.987
  -3.300        -13.984
  -3.297        -13.982
  -3.295        -13.979
  -3.293        -13.977
  -3.291        -13.974
  -3.289        -13.972
  -3.287        -13.970
  -3.284        -13.967
  -3.282        -13.965
  -3.280        -13.962
  -3.278        -13.960
  -3.276        -13.958
  -3.273        -13.955
  -3.271        -13.953
  -3.269        -13.951
  -3.267        -13.948
  -3.265        -13.946
  -3.263        -13.944
  -3.260        -13.941
  -3.258        -13.939
  -3.256        -13.937
  -3.254        -13.935
  -3.252        -13.932
  -3.250        -13.930
  -3.247        -13.928
  -3.245        -13.926
  -3.243        -13.923
  -3.241        -13.921
  -3.239        -13.919
  -3.237        -13.917
  -3.234        -13.915
  -3.232        -13.913
  -3.230        -13.911
  -3.228        -13.909
  -3.226        -13.906
  -3.224        -13.904
  -3.221        -13.902
  -3.219        -13.900
  -3.217        -13.898
  -3.215        -13.896
  -3.213        -13.894
  -3.211        -13.892
  -3.208        -13.890
  -3.206        -13.888
  -3.204        -13.886
  -3.202        -13.885
  -3.200        -13.883
  -3.197        -13.881
  -3.195        -13.879
  -3.193        -13.877
  -3.191        -13.875
  -3.189        -13.873
  -3.187        -13.872
  -3.184        -13.870
  -3.182        -13.868
  -3.180        -13.866
  -3.178        -13.864
  -3.176        -13.863
  -3.174        -13.861
  -3.171        -13.859
  -3.169        -13.858
  -3.167        -13.856
  -3.165        -13.854
  -3.163        -13.853
  -3.161        -13.851
  -3.158        -13.849
  -3.156        -13.848
  -3.154        -13.846
  -3.152        -13.845
  -3.150        -13.843
  -3.148        -13.841
  -3.145        -13.840
  -3.143        -13.838
  -3.141        -13.837
  -3.139        -13.836
  -3.137        -13.834
  -3.135        -13.833
  -3.132        -13.831
  -3.130        -13.830
  -3.128        -13.829
  -3.126        -13.827
  -3.124        -13.826
  -3.122        -13.825
  -3.119        -13.823
  -3.117        -13.822
  -3.115        -13.821
  -3.113        -13.819
  -3.111        -13.818
  -3.108        -13.817
  -3.106        -13.816
  -3.104        -13.815
  -3.102        -13.814
  -3.100        -13.812
  -3.098        -13.811
  -3.095        -13.810
  -3.093        -13.809
  -3.091        -13.808
  -3.089        -13.807
  -3.087        -13.806
  -3.085        -13.805
  -3.082        -13.804
  -3.080        -13.803
  -3.078        -13.802
  -3.076        -13.801
  -3.074        -13.801
  -3.072        -13.800
  -3.069        -13.799
  -3.067        -13.798
  -3.065        -13.797
  -3.063        -13.796
  -3.061        -13.796
  -3.059        -13.795
  -3.056        -13.794
  -3.054        -13.793
  -3.052        -13.793
  -3.050        -13.792
  -3.048        -13.792
  -3.046        -13.791
  -3.043        -13.790
  -3.041        -13.790
  -3.039        -13.789
  -3.037        -13.789
  -3.035        -13.788
  -3.032        -13.788
  -3.030        -13.787
  -3.028        -13.787
  -3.026        -13.787
  -3.024        -13.786
  -3.022        -13.786
  -3.019        -13.786
  -3.017        -13.785
  -3.015        -13.785
  -3.013        -13.785
  -3.011        -13.785
  -3.009        -13.784
  -3.006        -13.784
  -3.004        -13.784
  -3.002        -13.784
  -3.000        -13.784
  -2.998        -13.784
  -2.996        -13.784
  -2.993        -13.784
  -2.991        -13.784
  -2.989        -13.784
  -2.987        -13.784
  -2.985        -13.784
  -2.983        -13.784
  -2.980        -13.785
  -2.978        -13.785
  -2.976        -13.785
  -2.974        -13.785
  -2.972        -13.785
  -2.970        -13.786
  -2.967        -13.786
  -2.965        -13.786
  -2.963        -13.787
  -2.961        -13.787
  -2.959        -13.788
  -2.956        -13.788
  -2.954        -13.789
  -2.952        -13.789
  -2.950        -13.790
  -2.948        -13.790
  -2.946        -13.791
  -2.944        -13.792
  -2.941        -13.792
  -2.939        -13.793
  -2.937        -13.794
  -2.935        -13.795
  -2.933        -13.795
  -2.930        -13.796
  -2.928        -13.797
  -2.926        -13.798
  -2.924        -13.799
  -2.922        -13.800
  -2.920        -13.801
  -2.917        -13.802
  -2.915        -13.803
  -2.913        -13.804
  -2.911        -13.805
  -2.909        -13.807
  -2.907        -13.808
  -2.904        -13.809
  -2.902        -13.810
  -2.900        -13.812
  -2.898        -13.813
  -2.896        -13.814
  -2.894        -13.816
  -2.891        -13.817
  -2.889        -13.819
  -2.887        -13.820
  -2.885        -13.822
  -2.883        -13.824
  -2.880        -13.825
  -2.878        -13.827
  -2.876        -13.828
  -2.874        -13.830
  -2.872        -13.832
  -2.870        -13.834
  -2.867        -13.836
  -2.865        -13.838
  -2.863        -13.839
  -2.861        -13.841
  -2.859        -13.844
  -2.857        -13.846
  -2.855        -13.848
  -2.852        -13.850
  -2.850        -13.852
  -2.848        -13.854
  -2.846        -13.856
  -2.843        -13.859
  -2.842        -13.861
  -2.839        -13.864
  -2.837        -13.866
  -2.835        -13.868
  -2.833        -13.871
  -2.831        -13.873
  -2.828        -13.876
  -2.826        -13.879
  -2.824        -13.881
  -2.822        -13.884
  -2.820        -13.887
  -2.817        -13.890
  -2.815        -13.893
  -2.813        -13.896
  -2.811        -13.899
  -2.809        -13.901
  -2.807        -13.904
  -2.805        -13.907
  -2.802        -13.911
  -2.800        -13.914
  -2.798        -13.917
  -2.796        -13.920
  -2.794        -13.923
  -2.792        -13.927
  -2.789        -13.930
  -2.787        -13.934
  -2.785        -13.937
  -2.783        -13.941
  -2.781        -13.944
  -2.779        -13.948
  -2.776        -13.952
  -2.774        -13.955
  -2.772        -13.959
  -2.770        -13.963
  -2.767        -13.967
  -2.765        -13.971
  -2.763        -13.975
  -2.761        -13.979
  -2.759        -13.983
  -2.757        -13.987
  -2.754        -13.991
  -2.753        -13.995
  -2.750        -14.000
  -2.748        -14.004
  -2.746        -14.008
  -2.744        -14.013
  -2.741        -14.017
  -2.739        -14.022
  -2.737        -14.027
  -2.735        -14.031
  -2.733        -14.036
  -2.731        -14.041
  -2.729        -14.045
  -2.726        -14.050
  -2.724        -14.055
  -2.722        -14.060
  -2.720        -14.065
  -2.718        -14.070
  -2.716        -14.075
  -2.713        -14.081
  -2.711        -14.086
  -2.709        -14.091
  -2.707        -14.097
  -2.705        -14.102
  -2.703        -14.108
  -2.700        -14.113
  -2.698        -14.119
  -2.696        -14.124
  -2.694        -14.130
  -2.692        -14.136
  -2.689        -14.142
  -2.687        -14.148
  -2.685        -14.154
  -2.683        -14.160
  -2.681        -14.166
  -2.679        -14.172
  -2.677        -14.178
  -2.674        -14.185
  -2.672        -14.191
  -2.670        -14.197
  -2.668        -14.204
  -2.666        -14.210
  -2.663        -14.217
  -2.661        -14.224
  -2.659        -14.230
  -2.657        -14.237
  -2.655        -14.244
  -2.653        -14.251
  -2.650        -14.258
  -2.648        -14.265
  -2.646        -14.272
  -2.644        -14.280
  -2.642        -14.287
  -2.640        -14.294
  -2.637        -14.302
  -2.635        -14.309
  -2.633        -14.317
  -2.631        -14.324
  -2.629        -14.332
  -2.626        -14.340
  -2.624        -14.348
  -2.622        -14.355
  -2.620        -14.363
  -2.618        -14.371
  -2.616        -14.380
  -2.614        -14.388
  -2.611        -14.396
  -2.609        -14.404
  -2.607        -14.413
  -2.605        -14.421
  -2.603        -14.430
  -2.600        -14.438
  -2.598        -14.447
  -2.596        -14.456
  -2.594        -14.465
  -2.592        -14.474
  -2.590        -14.483
  -2.587        -14.492
  -2.585        -14.501
  -2.583        -14.510
  -2.581        -14.520
  -2.579        -14.529
  -2.577        -14.538
  -2.574        -14.548
  -2.572        -14.558
  -2.570        -14.567
  -2.568        -14.577
  -2.566        -14.587
  -2.564        -14.597
  -2.561        -14.607
  -2.559        -14.618
  -2.557        -14.628
  -2.555        -14.638
  -2.553        -14.648
  -2.551        -14.659
  -2.548        -14.669
  -2.546        -14.680
  -2.544        -14.691
  -2.542        -14.702
  -2.540        -14.713
  -2.538        -14.723
  -2.535        -14.735
  -2.533        -14.746
  -2.531        -14.757
  -2.529        -14.768
  -2.527        -14.780
  -2.525        -14.791
  -2.522        -14.803
  -2.520        -14.814
  -2.518        -14.826
  -2.516        -14.838
  -2.514        -14.850
  -2.511        -14.862
  -2.509        -14.874
  -2.507        -14.887
  -2.505        -14.899
  -2.503        -14.911
  -2.501        -14.924
  -2.498        -14.937
  -2.496        -14.949
  -2.494        -14.962
  -2.492        -14.975
  -2.490        -14.988
  -2.488        -15.001
  -2.485        -15.015
  -2.483        -15.028
  -2.481        -15.041
  -2.479        -15.055
  -2.477        -15.068
  -2.475        -15.082
  -2.472        -15.096
  -2.470        -15.110
  -2.468        -15.124
  -2.466        -15.138
  -2.464        -15.152
  -2.462        -15.167
  -2.459        -15.181
  -2.457        -15.196
  -2.455        -15.210
  -2.453        -15.225
  -2.451        -15.240
  -2.448        -15.255
  -2.446        -15.270
  -2.444        -15.285
  -2.442        -15.300
  -2.440        -15.316
  -2.438        -15.331
  -2.435        -15.347
  -2.433        -15.362
  -2.431        -15.378
  -2.429        -15.394
  -2.427        -15.410
  -2.425        -15.427
  -2.422        -15.443
  -2.420        -15.459
  -2.418        -15.476
  -2.416        -15.492
  -2.414        -15.509
  -2.412        -15.526
  -2.409        -15.543
  -2.407        -15.560
  -2.405        -15.577
  -2.403        -15.595
  -2.401        -15.612
  -2.398        -15.630
  -2.396        -15.648
  -2.394        -15.665
  -2.392        -15.683
  -2.390        -15.701
  -2.388        -15.719
  -2.386        -15.738
  -2.383        -15.756
  -2.381        -15.775
  -2.379        -15.794
  -2.377        -15.812
  -2.375        -15.831
  -2.372        -15.850
  -2.370        -15.870
  -2.368        -15.889
  -2.366        -15.909
  -2.364        -15.928
  -2.362        -15.948
  -2.359        -15.968
  -2.357        -15.987
  -2.355        -16.008
  -2.353        -16.028
  -2.351        -16.048
  -2.349        -16.069
  -2.346        -16.089
  -2.344        -16.110
  -2.342        -16.131
  -2.340        -16.152
  -2.338        -16.173
  -2.336        -16.195
  -2.333        -16.216
  -2.331        -16.238
  -2.329        -16.260
  -2.327        -16.282
  -2.325        -16.304
  -2.323        -16.326
  -2.320        -16.348
  -2.318        -16.371
  -2.316        -16.393
  -2.314        -16.416
  -2.312        -16.439
  -2.309        -16.462
  -2.307        -16.485
  -2.305        -16.508
  -2.303        -16.532
  -2.301        -16.556
  -2.299        -16.579
  -2.297        -16.603
  -2.294        -16.627
  -2.292        -16.652
  -2.290        -16.676
  -2.288        -16.701
  -2.286        -16.725
  -2.283        -16.750
  -2.281        -16.775
  -2.279        -16.800
  -2.277        -16.826
  -2.275        -16.851
  -2.273        -16.877
  -2.270        -16.903
  -2.268        -16.929
  -2.266        -16.955
  -2.264        -16.981
  -2.262        -17.007
  -2.260        -17.034
  -2.257        -17.061
  -2.255        -17.088
  -2.253        -17.115
  -2.251        -17.142
  -2.249        -17.169
  -2.247        -17.197
  -2.244        -17.225
  -2.242        -17.253
  -2.240        -17.281
  -2.238        -17.309
  -2.236        -17.338
  -2.234        -17.366
  -2.231        -17.395
  -2.229        -17.424
  -2.227        -17.453
  -2.225        -17.482
  -2.223        -17.511
  -2.220        -17.541
  -2.218        -17.571
  -2.216        -17.601
  -2.214        -17.631
  -2.212        -17.661
  -2.210        -17.691
  -2.207        -17.722
  -2.205        -17.752
  -2.203        -17.783
  -2.201        -17.814
  -2.199        -17.845
  -2.197        -17.876
  -2.194        -17.907
  -2.192        -17.939
  -2.190        -17.971
  -2.188        -18.002
  -2.186        -18.034
  -2.184        -18.066
  -2.181        -18.098
  -2.179        -18.130
  -2.177        -18.162
  -2.175        -18.194
  -2.173        -18.227
  -2.171        -18.259
  -2.168        -18.292
  -2.166        -18.324
  -2.164        -18.356
  -2.162        -18.389
  -2.160        -18.421
  -2.158        -18.453
  -2.155        -18.486
  -2.153        -18.518
  -2.151        -18.550
  -2.149        -18.582
  -2.147        -18.613
  -2.145        -18.644
  -2.142        -18.675
  -2.140        -18.706
  -2.138        -18.737
  -2.136        -18.767
  -2.134        -18.796
  -2.131        -18.825
  -2.129        -18.854
  -2.127        -18.882
  -2.125        -18.909
  -2.123        -18.935
  -2.121        -18.961
  -2.118        -18.986
  -2.116        -19.011
  -2.114        -19.034
  -2.112        -19.056
  -2.110        -19.078
  -2.108        -19.098
  -2.105        -19.117
  -2.103        -19.136
  -2.101        -19.153
  -2.099        -19.169
  -2.097        -19.184
  -2.095        -19.198
  -2.092        -19.211
  -2.090        -19.223
  -2.088        -19.233
  -2.086        -19.243
  -2.084        -19.252
  -2.082        -19.260
  -2.079        -19.267
  -2.077        -19.273
  -2.075        -19.278
  -2.073        -19.283
  -2.071        -19.286
  -2.069        -19.289
  -2.066        -19.291
  -2.064        -19.293
  -2.062        -19.294
  -2.060        -19.295
  -2.058        -19.295
  -2.056        -19.295
  -2.053        -19.294
  -2.051        -19.293
  -2.049        -19.292
  -2.047        -19.290
  -2.045        -19.289
  -2.043        -19.286
  -2.040        -19.284
  -2.038        -19.281
  -2.036        -19.278
  -2.034        -19.275
  -2.032        -19.272
  -2.029        -19.269
  -2.027        -19.266
  -2.025        -19.262
  -2.023        -19.259
  -2.021        -19.255
  -2.019        -19.251
  -2.016        -19.247
  -2.014        -19.243
  -2.012        -19.240
  -2.010        -19.235
  -2.008        -19.232
  -2.006        -19.227
  -2.003        -19.223
  -2.001        -19.219
  -1.999        -19.215
  -1.997        -19.211
  -1.995        -19.207
  -1.993        -19.203
  -1.990        -19.198
  -1.988        -19.196
  -1.986        -19.197
  -1.984        -19.198
  -1.982        -19.199
  -1.980        -19.200
  -1.977        -19.201
  -1.975        -19.202
  -1.973        -19.202
  -1.971        -19.203
  -1.969        -19.204
  -1.967        -19.205
  -1.964        -19.206
  -1.962        -19.207
  -1.960        -19.208
  -1.958        -19.209
  -1.956        -19.210
  -1.953        -19.210
  -1.951        -19.211
  -1.949        -19.212
  -1.947        -19.213
  -1.945        -19.214
  -1.943        -19.215
  -1.940        -19.216
  -1.938        -19.216
  -1.936        -19.217
  -1.934        -19.218
  -1.932        -19.219
  -1.930        -19.220
  -1.927        -19.221
  -1.925        -19.222
  -1.923        -19.223
  -1.921        -19.223
  -1.919        -19.224
  -1.917        -19.225
  -1.914        -19.226
  -1.912        -19.227
  -1.910        -19.228
  -1.908        -19.229
  -1.906        -19.229
  -1.904        -19.230
  -1.901        -19.231
  -1.899        -19.232
  -1.897        -19.233
  -1.895        -19.234
  -1.893        -19.235
  -1.891        -19.235
  -1.888        -19.236
  -1.886        -19.237
  -1.884        -19.238
  -1.882        -19.239
  -1.880        -19.240
  -1.877        -19.241
  -1.875        -19.241
  -1.873        -19.242
  -1.871        -19.243
  -1.869        -19.244
  -1.867        -19.245
  -1.864        -19.246
  -1.862        -19.246
  -1.860        -19.248
  -1.858        -19.248
  -1.856        -19.249
  -1.853        -19.250
  -1.851        -19.251
  -1.849        -19.252
  -1.847        -19.253
  -1.845        -19.253
  -1.843        -19.254
  -1.841        -19.255
  -1.838        -19.256
  -1.836        -19.257
  -1.834        -19.258
  -1.832        -19.259
  -1.830        -19.259
  -1.828        -19.260
  -1.825        -19.261
  -1.823        -19.262
  -1.821        -19.263
  -1.819        -19.264
  -1.817        -19.265
  -1.815        -19.266
  -1.812        -19.266
  -1.810        -19.267
  -1.808        -19.268
  -1.806        -19.269
  -1.804        -19.270
  -1.801        -19.271
  -1.799        -19.272
  -1.797        -19.272
  -1.795        -19.273
  -1.793        -19.274
  -1.791        -19.275
  -1.788        -19.276
  -1.786        -19.276
  -1.784        -19.278
  -1.782        -19.278
  -1.780        -19.279
  -1.777        -19.280
  -1.775        -19.281
  -1.773        -19.282
  -1.771        -19.283
  -1.769        -19.283
  -1.767        -19.284
  -1.764        -19.285
  -1.763        -19.286
  -1.760        -19.287
  -1.758        -19.288
  -1.756        -19.288
  -1.754        -19.289
  -1.752        -19.290
  -1.749        -19.291
  -1.747        -19.292
  -1.745        -19.293
  -1.743        -19.294
  -1.741        -19.294
  -1.739        -19.295
  -1.736        -19.296
  -1.734        -19.297
  -1.732        -19.298
  -1.730        -19.299
  -1.728        -19.300
  -1.726        -19.300
  -1.723        -19.301
  -1.721        -19.302
  -1.719        -19.303
  -1.717        -19.304
  -1.715        -19.305
  -1.713        -19.305
  -1.710        -19.306
  -1.708        -19.307
  -1.706        -19.308
  -1.704        -19.309
  -1.702        -19.310
  -1.699        -19.311
  -1.697        -19.311
  -1.695        -19.312
  -1.693        -19.313
  -1.691        -19.314
  -1.689        -19.315
  -1.686        -19.316
  -1.684        -19.316
  -1.682        -19.317
  -1.680        -19.318
  -1.678        -19.319
  -1.675        -19.320
  -1.673        -19.321
  -1.671        -19.322
  -1.669        -19.322
  -1.667        -19.323
  -1.665        -19.324
  -1.663        -19.325
  -1.660        -19.326
  -1.658        -19.327
  -1.656        -19.328
  -1.654        -19.329
  -1.652        -19.329
  -1.650        -19.330
  -1.647        -19.331
  -1.645        -19.332
  -1.643        -19.333
  -1.641        -19.334
  -1.639        -19.335
  -1.637        -19.335
  -1.634        -19.336
  -1.632        -19.337
  -1.630        -19.338
  -1.628        -19.339
  -1.626        -19.339
  -1.623        -19.341
  -1.621        -19.341
  -1.619        -19.342
  -1.617        -19.343
  -1.615        -19.344
  -1.613        -19.345
  -1.611        -19.345
  -1.608        -19.346
  -1.606        -19.347
  -1.604        -19.348
  -1.602        -19.349
  -1.600        -19.350
  -1.597        -19.351
  -1.595        -19.351
  -1.593        -19.352
  -1.591        -19.353
  -1.589        -19.354
  -1.587        -19.355
  -1.584        -19.356
  -1.582        -19.357
  -1.580        -19.358
  -1.578        -19.358
  -1.576        -19.359
  -1.573        -19.360
  -1.571        -19.361
  -1.569        -19.362
  -1.567        -19.363
  -1.565        -19.364
  -1.563        -19.364
  -1.561        -19.365
  -1.558        -19.366
  -1.556        -19.367
  -1.554        -19.368
  -1.552        -19.369
  -1.550        -19.370
  -1.547        -19.370
  -1.545        -19.371
  -1.543        -19.372
  -1.541        -19.373
  -1.539        -19.374
  -1.537        -19.375
  -1.534        -19.376
  -1.532        -19.377
  -1.530        -19.377
  -1.528        -19.378
  -1.526        -19.379
  -1.524        -19.380
  -1.522        -19.381
  -1.519        -19.382
  -1.517        -19.383
  -1.515        -19.383
  -1.513        -19.384
  -1.511        -19.385
  -1.508        -19.386
  -1.506        -19.387
  -1.504        -19.388
  -1.502        -19.389
  -1.500        -19.390
  -1.498        -19.391
  -1.495        -19.392
  -1.493        -19.392
  -1.491        -19.393
  -1.489        -19.394
  -1.487        -19.395
  -1.484        -19.396
  -1.482        -19.397
  -1.480        -19.398
  -1.478        -19.399
  -1.476        -19.400
  -1.474        -19.401
  -1.472        -19.401
  -1.469        -19.402
  -1.467        -19.403
  -1.465        -19.404
  -1.463        -19.405
  -1.461        -19.406
  -1.458        -19.407
  -1.456        -19.408
  -1.454        -19.409
  -1.452        -19.410
  -1.450        -19.411
  -1.448        -19.411
  -1.445        -19.412
  -1.443        -19.413
  -1.441        -19.414
  -1.439        -19.415
  -1.437        -19.416
  -1.435        -19.417
  -1.432        -19.418
  -1.430        -19.419
  -1.428        -19.420
  -1.426        -19.421
  -1.424        -19.422
  -1.422        -19.423
  -1.419        -19.424
  -1.417        -19.425
  -1.415        -19.426
  -1.413        -19.427
  -1.411        -19.428
  -1.409        -19.429
  -1.406        -19.430
  -1.404        -19.431
  -1.402        -19.432
  -1.400        -19.433
  -1.398        -19.434
  -1.396        -19.435
  -1.393        -19.436
  -1.391        -19.437
  -1.389        -19.438
  -1.387        -19.439
  -1.385        -19.440
  -1.383        -19.441
  -1.380        -19.442
  -1.378        -19.443
  -1.376        -19.444
  -1.374        -19.445
  -1.372        -19.446
  -1.370        -19.447
  -1.367        -19.448
  -1.365        -19.449
  -1.363        -19.450
  -1.361        -19.451
  -1.359        -19.452
  -1.356        -19.453
  -1.354        -19.454
  -1.352        -19.456
  -1.350        -19.457
  -1.348        -19.458
  -1.346        -19.459
  -1.343        -19.460
  -1.341        -19.461
  -1.339        -19.462
  -1.337        -19.463
  -1.335        -19.465
  -1.333        -19.466
  -1.330        -19.467
  -1.328        -19.468
  -1.326        -19.469
  -1.324        -19.470
  -1.322        -19.471
  -1.320        -19.473
  -1.317        -19.474
  -1.315        -19.475
  -1.313        -19.476
  -1.311        -19.477
  -1.309        -19.479
  -1.307        -19.480
  -1.304        -19.481
  -1.302        -19.482
  -1.300        -19.484
  -1.298        -19.485
  -1.296        -19.486
  -1.293        -19.488
  -1.291        -19.489
  -1.289        -19.490
  -1.287        -19.491
  -1.285        -19.493
  -1.283        -19.494
  -1.280        -19.495
  -1.278        -19.497
  -1.276        -19.498
  -1.274        -19.499
  -1.272        -19.501
  -1.270        -19.502
  -1.267        -19.503
  -1.265        -19.505
  -1.263        -19.506
  -1.261        -19.508
  -1.259        -19.509
  -1.257        -19.510
  -1.254        -19.512
  -1.252        -19.513
  -1.250        -19.515
  -1.248        -19.516
  -1.246        -19.518
  -1.243        -19.519
  -1.241        -19.520
  -1.239        -19.522
  -1.237        -19.523
  -1.235        -19.525
  -1.233        -19.526
  -1.231        -19.528
  -1.228        -19.530
  -1.226        -19.531
  -1.224        -19.533
  -1.222        -19.534
  -1.220        -19.536
  -1.217        -19.537
  -1.215        -19.539
  -1.213        -19.540
  -1.211        -19.542
  -1.209        -19.544
  -1.207        -19.545
  -1.204        -19.547
  -1.202        -19.548
  -1.200        -19.550
  -1.198        -19.551
  -1.196        -19.553
  -1.194        -19.555
  -1.191        -19.556
  -1.189        -19.558
  -1.187        -19.560
  -1.185        -19.561
  -1.183        -19.563
  -1.181        -19.565
  -1.178        -19.566
  -1.176        -19.568
  -1.174        -19.570
  -1.172        -19.571
  -1.170        -19.573
  -1.168        -19.575
  -1.165        -19.577
  -1.163        -19.578
  -1.161        -19.580
  -1.159        -19.582
  -1.157        -19.583
  -1.155        -19.585
  -1.152        -19.587
  -1.150        -19.589
  -1.148        -19.591
  -1.146        -19.592
  -1.144        -19.594
  -1.142        -19.596
  -1.139        -19.598
  -1.137        -19.599
  -1.135        -19.601
  -1.133        -19.603
  -1.131        -19.605
  -1.129        -19.606
  -1.126        -19.608
  -1.124        -19.610
  -1.122        -19.612
  -1.120        -19.614
  -1.118        -19.615
  -1.115        -19.617
  -1.113        -19.619
  -1.111        -19.621
  -1.109        -19.622
  -1.107        -19.624
  -1.105        -19.626
  -1.102        -19.627
  -1.100        -19.629
  -1.098        -19.631
  -1.096        -19.633
  -1.094        -19.635
  -1.092        -19.636
  -1.089        -19.638
  -1.087        -19.640
  -1.085        -19.641
  -1.083        -19.643
  -1.081        -19.645
  -1.079        -19.647
  -1.076        -19.648
  -1.074        -19.650
  -1.072        -19.652
  -1.070        -19.653
  -1.068        -19.655
  -1.066        -19.657
  -1.063        -19.658
  -1.061        -19.660
  -1.059        -19.662
  -1.057        -19.663
  -1.055        -19.665
  -1.052        -19.667
  -1.050        -19.668
  -1.048        -19.670
  -1.046        -19.671
  -1.044        -19.673
  -1.042        -19.675
  -1.039        -19.676
  -1.037        -19.678
  -1.035        -19.680
  -1.033        -19.681
  -1.031        -19.683
  -1.029        -19.684
  -1.026        -19.686
  -1.024        -19.687
  -1.022        -19.689
  -1.020        -19.690
  -1.018        -19.692
  -1.016        -19.694
  -1.013        -19.695
  -1.011        -19.697
  -1.009        -19.698
  -1.007        -19.699
  -1.005        -19.701
  -1.003        -19.702
  -1.000        -19.704
  -0.998        -19.705
  -0.996        -19.707
  -0.994        -19.708
  -0.992        -19.709
  -0.990        -19.711
  -0.987        -19.712
  -0.985        -19.713
  -0.983        -19.715
  -0.981        -19.716
  -0.979        -19.717
  -0.977        -19.718
  -0.974        -19.720
  -0.972        -19.721
  -0.970        -19.722
  -0.968        -19.724
  -0.966        -19.725
  -0.963        -19.726
  -0.961        -19.727
  -0.959        -19.728
  -0.957        -19.729
  -0.955        -19.730
  -0.953        -19.731
  -0.950        -19.732
  -0.948        -19.734
  -0.946        -19.735
  -0.944        -19.736
  -0.942        -19.737
  -0.940        -19.737
  -0.937        -19.738
  -0.935        -19.739
  -0.933        -19.740
  -0.931        -19.741
  -0.929        -19.742
  -0.927        -19.743
  -0.924        -19.744
  -0.922        -19.745
  -0.920        -19.746
  -0.918        -19.746
  -0.916        -19.747
  -0.914        -19.748
  -0.911        -19.749
  -0.909        -19.750
  -0.907        -19.750
  -0.905        -19.751
  -0.903        -19.752
  -0.900        -19.753
  -0.898        -19.753
  -0.896        -19.754
  -0.894        -19.755
  -0.892        -19.755
  -0.890        -19.756
  -0.887        -19.757
  -0.885        -19.757
  -0.883        -19.758
  -0.881        -19.758
  -0.879        -19.759
  -0.877        -19.759
  -0.874        -19.760
  -0.872        -19.760
  -0.870        -19.761
  -0.868        -19.762
  -0.866        -19.762
  -0.864        -19.762
  -0.862        -19.763
  -0.859        -19.763
  -0.857        -19.763
  -0.855        -19.764
  -0.853        -19.764
  -0.851        -19.764
  -0.848        -19.765
  -0.846        -19.765
  -0.844        -19.766
  -0.842        -19.766
  -0.840        -19.766
  -0.838        -19.766
  -0.835        -19.767
  -0.833        -19.766
  -0.831        -19.767
  -0.829        -19.767
  -0.827        -19.767
  -0.825        -19.767
  -0.822        -19.768
  -0.820        -19.768
  -0.818        -19.768
  -0.816        -19.768
  -0.814        -19.768
  -0.812        -19.768
  -0.809        -19.768
  -0.807        -19.768
  -0.805        -19.768
  -0.803        -19.768
  -0.801        -19.768
  -0.799        -19.768
  -0.796        -19.768
  -0.794        -19.768
  -0.792        -19.768
  -0.790        -19.768
  -0.788        -19.768
  -0.785        -19.768
  -0.783        -19.768
  -0.781        -19.767
  -0.779        -19.767
  -0.777        -19.767
  -0.774        -19.767
  -0.772        -19.766
  -0.770        -19.766
  -0.768        -19.766
  -0.766        -19.766
  -0.764        -19.765
  -0.762        -19.765
  -0.759        -19.765
  -0.757        -19.765
  -0.755        -19.764
  -0.753        -19.764
  -0.751        -19.764
  -0.748        -19.764
  -0.746        -19.763
  -0.744        -19.763
  -0.742        -19.762
  -0.740        -19.762
  -0.738        -19.761
  -0.736        -19.761
  -0.733        -19.760
  -0.731        -19.760
  -0.729        -19.760
  -0.727        -19.759
  -0.725        -19.759
  -0.723        -19.758
  -0.720        -19.758
  -0.718        -19.757
  -0.716        -19.757
  -0.714        -19.756
  -0.712        -19.755
  -0.709        -19.755
  -0.707        -19.754
  -0.705        -19.754
  -0.703        -19.753
  -0.701        -19.752
  -0.699        -19.752
  -0.697        -19.751
  -0.694        -19.751
  -0.692        -19.750
  -0.690        -19.749
  -0.688        -19.748
  -0.685        -19.748
  -0.683        -19.747
  -0.681        -19.747
  -0.679        -19.746
  -0.677        -19.745
  -0.675        -19.744
  -0.673        -19.743
  -0.670        -19.743
  -0.668        -19.742
  -0.666        -19.741
  -0.664        -19.740
  -0.662        -19.740
  -0.659        -19.739
  -0.657        -19.738
  -0.655        -19.737
  -0.653        -19.736
  -0.651        -19.735
  -0.649        -19.735
  -0.647        -19.734
  -0.644        -19.733
  -0.642        -19.732
  -0.640        -19.731
  -0.638        -19.730
  -0.636        -19.729
  -0.633        -19.728
  -0.631        -19.728
  -0.629        -19.726
  -0.627        -19.726
  -0.625        -19.725
  -0.623        -19.724
  -0.621        -19.723
  -0.618        -19.722
  -0.616        -19.721
  -0.614        -19.720
  -0.612        -19.719
  -0.610        -19.718
  -0.608        -19.717
  -0.605        -19.716
  -0.603        -19.715
  -0.601        -19.714
  -0.599        -19.713
  -0.596        -19.712
  -0.594        -19.711
  -0.592        -19.710
  -0.590        -19.708
  -0.588        -19.708
  -0.586        -19.707
  -0.584        -19.705
  -0.581        -19.704
  -0.579        -19.703
  -0.577        -19.702
  -0.575        -19.701
  -0.573        -19.700
  -0.571        -19.699
  -0.568        -19.698
  -0.566        -19.697
  -0.564        -19.696
  -0.562        -19.695
  -0.560        -19.694
  -0.557        -19.693
  -0.555        -19.692
  -0.553        -19.691
  -0.551        -19.690
  -0.549        -19.689
  -0.547        -19.688
  -0.544        -19.687
  -0.542        -19.685
  -0.540        -19.684
  -0.538        -19.683
  -0.536        -19.682
  -0.534        -19.681
  -0.531        -19.680
  -0.529        -19.679
  -0.527        -19.678
  -0.525        -19.677
  -0.523        -19.676
  -0.521        -19.675
  -0.518        -19.674
  -0.516        -19.673
  -0.514        -19.672
  -0.512        -19.671
  -0.510        -19.670
  -0.507        -19.669
  -0.505        -19.668
  -0.503        -19.667
  -0.501        -19.665
  -0.499        -19.664
  -0.497        -19.663
  -0.495        -19.662
  -0.492        -19.661
  -0.490        -19.660
  -0.488        -19.659
  -0.486        -19.658
  -0.484        -19.657
  -0.482        -19.656
  -0.479        -19.655
  -0.477        -19.654
  -0.475        -19.652
  -0.473        -19.651
  -0.471        -19.650
  -0.468        -19.649
  -0.466        -19.648
  -0.464        -19.647
  -0.462        -19.646
  -0.460        -19.645
  -0.458        -19.644
  -0.455        -19.643
  -0.453        -19.642
  -0.451        -19.641
  -0.449        -19.640
  -0.447        -19.639
  -0.445        -19.638
  -0.442        -19.637
  -0.440        -19.636
  -0.438        -19.635
  -0.436        -19.634
  -0.434        -19.633
  -0.432        -19.632
  -0.429        -19.631
  -0.427        -19.630
  -0.425        -19.629
  -0.423        -19.628
  -0.421        -19.627
  -0.419        -19.626
  -0.416        -19.625
  -0.414        -19.624
  -0.412        -19.623
  -0.410        -19.622
  -0.408        -19.621
  -0.405        -19.620
  -0.403        -19.619
  -0.401        -19.618
  -0.399        -19.617
  -0.397        -19.616
  -0.395        -19.615
  -0.392        -19.614
  -0.390        -19.613
  -0.388        -19.612
  -0.386        -19.611
  -0.384        -19.610
  -0.382        -19.609
  -0.379        -19.608
  -0.377        -19.607
  -0.375        -19.606
  -0.373        -19.605
  -0.371        -19.604
  -0.369        -19.603
  -0.366        -19.602
  -0.364        -19.602
  -0.362        -19.601
  -0.360        -19.600
  -0.358        -19.599
  -0.356        -19.598
  -0.353        -19.597
  -0.351        -19.596
  -0.349        -19.595
  -0.347        -19.594
  -0.345        -19.593
  -0.343        -19.592
  -0.340        -19.592
  -0.338        -19.591
  -0.336        -19.590
  -0.334        -19.589
  -0.332        -19.588
  -0.330        -19.588
  -0.327        -19.587
  -0.325        -19.586
  -0.323        -19.585
  -0.321        -19.584
  -0.319        -19.584
  -0.316        -19.583
  -0.314        -19.582
  -0.312        -19.582
  -0.310        -19.581
  -0.308        -19.580
  -0.306        -19.580
  -0.303        -19.579
  -0.301        -19.578
  -0.299        -19.578
  -0.297        -19.577
  -0.295        -19.577
  -0.293        -19.577
  -0.290        -19.576
  -0.288        -19.576
  -0.286        -19.575
  -0.284        -19.575
  -0.282        -19.575
  -0.280        -19.574
  -0.277        -19.574
  -0.275        -19.574
  -0.273        -19.573
  -0.271        -19.573
  -0.269        -19.573
  -0.267        -19.572
  -0.264        -19.572
  -0.262        -19.572
  -0.260        -19.572
  -0.258        -19.571
  -0.256        -19.571
  -0.253        -19.571
  -0.251        -19.571
  -0.249        -19.571
  -0.247        -19.571
  -0.245        -19.570
  -0.243        -19.570
  -0.241        -19.570
  -0.238        -19.570
  -0.236        -19.570
  -0.234        -19.570
  -0.232        -19.570
  -0.230        -19.570
  -0.227        -19.570
  -0.225        -19.570
  -0.223        -19.570
  -0.221        -19.569
  -0.219        -19.569
  -0.217        -19.569
  -0.214        -19.570
  -0.212        -19.569
  -0.210        -19.570
  -0.208        -19.570
  -0.206        -19.570
  -0.204        -19.570
  -0.201        -19.570
  -0.199        -19.570
  -0.197        -19.570
  -0.195        -19.570
  -0.193        -19.570
  -0.191        -19.570
  -0.188        -19.570
  -0.186        -19.571
  -0.184        -19.571
  -0.182        -19.571
  -0.180        -19.571
  -0.178        -19.571
  -0.175        -19.571
  -0.173        -19.572
  -0.171        -19.572
  -0.169        -19.572
  -0.167        -19.573
  -0.164        -19.573
  -0.162        -19.573
  -0.160        -19.573
  -0.158        -19.574
  -0.156        -19.574
  -0.154        -19.574
  -0.151        -19.575
  -0.149        -19.575
  -0.147        -19.575
  -0.145        -19.576
  -0.143        -19.576
  -0.141        -19.577
  -0.138        -19.577
  -0.136        -19.577
  -0.134        -19.578
  -0.132        -19.578
  -0.130        -19.578
  -0.128        -19.579
  -0.125        -19.579
  -0.123        -19.580
  -0.121        -19.580
  -0.119        -19.580
  -0.117        -19.581
  -0.115        -19.581
  -0.112        -19.581
  -0.110        -19.582
  -0.108        -19.582
  -0.106        -19.582
  -0.104        -19.583
  -0.102        -19.583
  -0.099        -19.583
  -0.097        -19.584
  -0.095        -19.584
  -0.093        -19.584
  -0.091        -19.584
  -0.089        -19.585
  -0.086        -19.585
  -0.084        -19.585
  -0.082        -19.585
  -0.080        -19.586
  -0.078        -19.586
  -0.075        -19.586
  -0.073        -19.586
  -0.071        -19.587
  -0.069        -19.587
  -0.067        -19.587
  -0.065        -19.587
  -0.063        -19.588
  -0.060        -19.588
  -0.058        -19.588
  -0.056        -19.589
  -0.054        -19.589
  -0.052        -19.589
  -0.049        -19.589
  -0.047        -19.590
  -0.045        -19.590
  -0.043        -19.590
  -0.041        -19.591
  -0.039        -19.591
  -0.036        -19.591
  -0.034        -19.591
  -0.032        -19.592
  -0.030        -19.592
  -0.028        -19.592
  -0.026        -19.593
  -0.023        -19.593
  -0.021        -19.593
  -0.019        -19.594
  -0.017        -19.594
  -0.015        -19.594
  -0.013        -19.594
  -0.010        -19.595
  -0.008        -19.595
  -0.006        -19.595
  -0.004        -19.596
  -0.002        -19.596
   0.000        -19.596
   0.003        -19.597
   0.005        -19.597
   0.007        -19.597
   0.009        -19.597
   0.011        -19.598
   0.013        -19.598
   0.016        -19.598
   0.018        -19.599
   0.020        -19.599
   0.022        -19.599
   0.024        -19.600
   0.027        -19.600
   0.029        -19.600
   0.031        -19.601
   0.033        -19.601
   0.035        -19.601
   0.037        -19.602
   0.040        -19.602
   0.042        -19.603
   0.044        -19.603
   0.046        -19.603
   0.048        -19.604
   0.050        -19.604
   0.053        -19.604
   0.055        -19.605
   0.057        -19.605
   0.059        -19.605
   0.061        -19.606
   0.063        -19.606
   0.066        -19.607
   0.068        -19.607
   0.070        -19.607
   0.072        -19.608
   0.074        -19.608
   0.076        -19.608
   0.079        -19.609
   0.081        -19.609
   0.083        -19.609
   0.085        -19.610
   0.087        -19.610
   0.089        -19.610
   0.092        -19.611
   0.094        -19.611
   0.096        -19.611
   0.098        -19.612
   0.100        -19.612
   0.103        -19.613
   0.105        -19.613
   0.107        -19.613
   0.109        -19.614
   0.111        -19.614
   0.113        -19.614
   0.116        -19.615
   0.118        -19.615
   0.120        -19.616
   0.122        -19.616
   0.124        -19.616
   0.126        -19.617
   0.128        -19.617
   0.131        -19.617
   0.133        -19.618
   0.135        -19.618
   0.137        -19.619
   0.139        -19.619
   0.142        -19.620
   0.144        -19.620
   0.146        -19.620
   0.148        -19.621
   0.150        -19.621
   0.153        -19.622
   0.155        -19.622
   0.157        -19.623
   0.159        -19.622
   0.161        -19.623
   0.163        -19.623
   0.165        -19.624
   0.168        -19.625
   0.170        -19.625
   0.172        -19.626
   0.174        -19.626
   0.176        -19.626
   0.178        -19.627
   0.181        -19.627
   0.183        -19.628
   0.185        -19.628
   0.187        -19.629
   0.189        -19.630
   0.192        -19.630
   0.194        -19.630
   0.196        -19.631
   0.198        -19.632
   0.200        -19.632
   0.202        -19.632
   0.205        -19.633
   0.207        -19.633
   0.209        -19.634
   0.211        -19.635
   0.213        -19.635
   0.215        -19.635
   0.218        -19.636
   0.220        -19.637
   0.222        -19.637
   0.224        -19.638
   0.226        -19.638
   0.229        -19.639
   0.231        -19.639
   0.233        -19.640
   0.235        -19.640
   0.237        -19.641
   0.239        -19.641
   0.241        -19.642
   0.244        -19.643
   0.246        -19.643
   0.248        -19.644
   0.250        -19.645
   0.252        -19.645
   0.254        -19.646
   0.257        -19.646
   0.259        -19.647
   0.261        -19.648
   0.263        -19.649
   0.265        -19.649
   0.267        -19.650
   0.270        -19.651
   0.272        -19.652
   0.274        -19.652
   0.276        -19.653
   0.278        -19.653
   0.281        -19.654
   0.283        -19.655
   0.285        -19.656
   0.287        -19.657
   0.289        -19.658
   0.291        -19.659
   0.293        -19.660
   0.296        -19.661
   0.298        -19.662
   0.300        -19.663
   0.302        -19.664
   0.305        -19.665
   0.307        -19.666
   0.309        -19.667
   0.311        -19.668
   0.313        -19.669
   0.315        -19.670
   0.318        -19.671
   0.320        -19.672
   0.322        -19.674
   0.324        -19.675
   0.326        -19.676
   0.328        -19.677
   0.330        -19.678
   0.333        -19.679
   0.335        -19.680
   0.337        -19.682
   0.339        -19.683
   0.341        -19.684
   0.344        -19.685
   0.346        -19.686
   0.348        -19.688
   0.350        -19.689
   0.352        -19.690
   0.354        -19.691
   0.356        -19.692
   0.359        -19.693
   0.361        -19.695
   0.363        -19.696
   0.365        -19.697
   0.367        -19.698
   0.369        -19.699
   0.372        -19.700
   0.374        -19.702
   0.376        -19.703
   0.378        -19.704
   0.380        -19.706
   0.383        -19.707
   0.385        -19.708
   0.387        -19.709
   0.389        -19.711
   0.391        -19.712
   0.393        -19.713
   0.396        -19.715
   0.398        -19.716
   0.400        -19.717
   0.402        -19.719
   0.404        -19.720
   0.406        -19.721
   0.409        -19.723
   0.411        -19.724
   0.413        -19.726
   0.415        -19.727
   0.417        -19.729
   0.420        -19.730
   0.422        -19.731
   0.424        -19.733
   0.426        -19.734
   0.428        -19.736
   0.430        -19.737
   0.432        -19.738
   0.435        -19.740
   0.437        -19.742
   0.439        -19.743
   0.441        -19.744
   0.443        -19.746
   0.446        -19.748
   0.448        -19.749
   0.450        -19.750
   0.452        -19.752
   0.454        -19.754
   0.456        -19.755
   0.459        -19.757
   0.461        -19.758
   0.463        -19.760
   0.465        -19.761
   0.467        -19.763
   0.469        -19.765
   0.472        -19.766
   0.474        -19.767
   0.476        -19.769
   0.478        -19.770
   0.480        -19.772
   0.482        -19.773
   0.485        -19.774
   0.487        -19.776
   0.489        -19.777
   0.491        -19.778
   0.493        -19.778
   0.495        -19.779
   0.498        -19.780
   0.500        -19.780
   0.502        -19.781
   0.504        -19.782
   0.506        -19.783
   0.510        -19.784
   0.512        -19.784
   0.513        -19.784
   0.515        -19.785
   0.517        -19.785
   0.519        -19.785
   0.522        -19.785
   0.524        -19.786
   0.526        -19.786
   0.528        -19.786
   0.530        -19.787
   0.532        -19.787
   0.535        -19.787
   0.537        -19.788
   0.539        -19.788
   0.541        -19.788
   0.543        -19.789
   0.545        -19.789
   0.548        -19.789
   0.550        -19.790
   0.552        -19.790
   0.554        -19.790
   0.556        -19.791
   0.558        -19.791
   0.561        -19.792
   0.563        -19.792
   0.565        -19.792
   0.567        -19.793
   0.569        -19.793
   0.572        -19.793
   0.574        -19.794
   0.576        -19.794
   0.578        -19.795
   0.580        -19.795
   0.582        -19.796
   0.585        -19.796
   0.587        -19.797
   0.589        -19.797
   0.591        -19.798
   0.593        -19.798
   0.595        -19.799
   0.598        -19.799
   0.600        -19.800
   0.602        -19.800
   0.604        -19.801
   0.606        -19.801
   0.608        -19.802
   0.611        -19.803
   0.613        -19.803
   0.615        -19.804
   0.617        -19.804
   0.619        -19.805
   0.621        -19.806
   0.624        -19.806
   0.626        -19.807
   0.628        -19.807
   0.630        -19.808
   0.632        -19.809
   0.634        -19.809
   0.637        -19.810
   0.639        -19.811
   0.641        -19.811
   0.643        -19.812
   0.645        -19.813
   0.647        -19.814
   0.650        -19.814
   0.652        -19.815
   0.654        -19.816
   0.656        -19.817
   0.658        -19.817
   0.660        -19.818
   0.663        -19.819
   0.665        -19.820
   0.667        -19.821
   0.669        -19.821
   0.671        -19.822
   0.673        -19.823
   0.676        -19.824
   0.678        -19.825
   0.680        -19.826
   0.682        -19.827
   0.684        -19.828
   0.687        -19.829
   0.689        -19.830
   0.691        -19.831
   0.693        -19.832
   0.695        -19.833
   0.697        -19.834
   0.700        -19.835
   0.702        -19.836
   0.704        -19.837
   0.706        -19.839
   0.708        -19.840
   0.710        -19.841
   0.713        -19.842
   0.715        -19.843
   0.717        -19.844
   0.719        -19.846
   0.721        -19.848
   0.723        -19.849
   0.726        -19.850
   0.728        -19.852
   0.730        -19.853
   0.732        -19.855
   0.734        -19.856
   0.736        -19.858
   0.739        -19.859
   0.741        -19.861
   0.743        -19.863
   0.745        -19.864
   0.747        -19.866
   0.750        -19.868
   0.752        -19.869
   0.754        -19.871
   0.756        -19.873
   0.758        -19.874
   0.760        -19.876
   0.762        -19.878
   0.765        -19.880
   0.767        -19.882
   0.769        -19.884
   0.771        -19.886
   0.773        -19.888
   0.776        -19.890
   0.778        -19.892
   0.780        -19.894
   0.782        -19.896
   0.784        -19.898
   0.786        -19.900
   0.789        -19.903
   0.791        -19.905
   0.793        -19.907
   0.795        -19.909
   0.797        -19.912
   0.799        -19.914
   0.802        -19.916
   0.804        -19.919
   0.806        -19.922
   0.808        -19.924
   0.810        -19.927
   0.812        -19.930
   0.815        -19.933
   0.817        -19.935
   0.819        -19.938
   0.821        -19.941
   0.823        -19.943
   0.825        -19.947
   0.828        -19.950
   0.830        -19.953
   0.832        -19.956
   0.834        -19.959
   0.836        -19.962
   0.838        -19.965
   0.841        -19.968
   0.843        -19.971
   0.845        -19.974
   0.847        -19.978
   0.849        -19.981
   0.852        -19.985
   0.854        -19.988
   0.856        -19.991
   0.858        -19.995
   0.860        -19.998
   0.862        -20.002
   0.865        -20.005
   0.867        -20.009
   0.869        -20.013
   0.871        -20.016
   0.873        -20.020
   0.875        -20.024
   0.878        -20.028
   0.880        -20.032
   0.882        -20.035
   0.884        -20.039
   0.886        -20.043
   0.888        -20.048
   0.891        -20.052
   0.893        -20.057
   0.895        -20.061
   0.897        -20.066
   0.899        -20.070
   0.901        -20.075
   0.904        -20.079
   0.906        -20.084
   0.908        -20.089
   0.910        -20.094
   0.912        -20.100
   0.915        -20.105
   0.917        -20.110
   0.919        -20.115
   0.921        -20.120
   0.923        -20.126
   0.925        -20.131
   0.928        -20.137
   0.930        -20.143
   0.932        -20.149
   0.934        -20.155
   0.936        -20.161
   0.938        -20.168
   0.941        -20.174
   0.943        -20.180
   0.945        -20.186
   0.947        -20.192
   0.949        -20.200
   0.951        -20.208
   0.954        -20.216
   0.956        -20.224
   0.958        -20.231
   0.960        -20.239
   0.962        -20.247
   0.964        -20.255
   0.967        -20.263
   0.969        -20.270
   0.971        -20.277
   0.973        -20.285
   0.975        -20.292
   0.977        -20.299
   0.980        -20.306
   0.982        -20.313
   0.984        -20.320
   0.986        -20.327
   0.988        -20.335
   0.990        -20.344
   0.993        -20.352
   0.995        -20.360
   0.997        -20.368
   0.999        -20.377
   1.001        -20.385
   1.004        -20.393
   1.006        -20.401
   1.008        -20.410
   1.010        -20.419
   1.012        -20.432
   1.014        -20.445
   1.017        -20.459
   1.019        -20.472
   1.021        -20.485
   1.023        -20.498
   1.025        -20.511
   1.027        -20.524
   1.030        -20.537
   1.032        -20.554
   1.034        -20.572
   1.036        -20.590
   1.038        -20.607
   1.040        -20.625
   1.043        -20.643
   1.045        -20.661
   1.047        -20.679
   1.049        -20.697
   1.051        -20.716
   1.053        -20.742
   1.056        -20.769
   1.058        -20.796
   1.060        -20.823
   1.062        -20.850
   1.064        -20.877
   1.066        -20.903
   1.069        -20.930
   1.071        -20.957
   1.073        -20.995
   1.075        -21.044
   1.077        -21.093
   1.079        -21.142
   1.082        -21.191
   1.084        -21.240
   1.086        -21.289
   1.088        -21.338
   1.090        -21.387
   1.093        -21.434
   1.095        -21.469
   1.097        -21.500
   1.099        -21.531
   1.101        -21.562
   1.103        -21.593
   1.106        -21.624
   1.108        -21.655
   1.110        -21.686
   1.112        -21.721
   1.114        -21.740
   1.117        -21.743
   1.119        -21.746
   1.121        -21.748
   1.123        -21.751
   1.125        -21.754
   1.127        -21.757
   1.129        -21.760
   1.131        -21.763
   1.134        -21.766
   1.136        -21.769
   1.138        -21.771
   1.140        -21.774
   1.143        -21.777
   1.145        -21.780
   1.147        -21.783
   1.149        -21.785
   1.151        -21.788
   1.153        -21.791
   1.155        -21.793
   1.158        -21.796
   1.160        -21.799
   1.162        -21.802
   1.164        -21.805
   1.166        -21.808
   1.169        -21.811
   1.171        -21.814
   1.173        -21.816
   1.175        -21.819
   1.177        -21.822
   1.180        -21.825
   1.181        -21.828
   1.184        -21.831
   1.186        -21.834
   1.188        -21.837
   1.190        -21.840
   1.192        -21.843
   1.195        -21.846
   1.197        -21.849
   1.199        -21.852
   1.201        -21.856
   1.203        -21.859
   1.205        -21.862
   1.208        -21.865
   1.210        -21.868
   1.212        -21.871
   1.214        -21.874
   1.216        -21.878
   1.218        -21.881
   1.220        -21.884
   1.223        -21.887
   1.225        -21.890
   1.227        -21.894
   1.229        -21.897
   1.232        -21.900
   1.234        -21.903
   1.236        -21.907
   1.238        -21.910
   1.240        -21.913
   1.242        -21.917
   1.245        -21.920
   1.247        -21.923
   1.249        -21.927
   1.251        -21.930
   1.253        -21.933
   1.255        -21.937
   1.258        -21.940
   1.260        -21.944
   1.262        -21.947
   1.264        -21.951
   1.266        -21.954
   1.268        -21.958
   1.270        -21.961
   1.273        -21.965
   1.275        -21.969
   1.277        -21.972
   1.279        -21.976
   1.281        -21.979
   1.284        -21.983
   1.286        -21.987
   1.288        -21.991
   1.290        -21.995
   1.292        -21.999
   1.294        -22.002
   1.297        -22.006
   1.299        -22.010
   1.301        -22.014
   1.303        -22.018
   1.305        -22.022
   1.307        -22.026
   1.310        -22.030
   1.312        -22.034
   1.314        -22.038
   1.316        -22.042
   1.318        -22.046
   1.320        -22.050
   1.323        -22.054
   1.325        -22.058
   1.327        -22.062
   1.329        -22.067
   1.331        -22.071
   1.334        -22.075
   1.336        -22.079
   1.338        -22.083
   1.340        -22.087
   1.342        -22.091
   1.344        -22.096
   1.346        -22.100
   1.349        -22.105
   1.351        -22.109
   1.353        -22.114
   1.355        -22.118
   1.357        -22.122
   1.359        -22.127
   1.362        -22.131
   1.364        -22.136
   1.366        -22.140
   1.368        -22.144
   1.370        -22.149
   1.373        -22.153
   1.375        -22.157
   1.377        -22.162
   1.379        -22.166
   1.381        -22.171
   1.383        -22.175
   1.386        -22.179
   1.388        -22.183
   1.390        -22.187
   1.392        -22.191
   1.394        -22.196
   1.397        -22.200
   1.399        -22.204
   1.401        -22.208
   1.403        -22.212
   1.405        -22.216
   1.407        -22.221
   1.410        -22.225
   1.412        -22.230
   1.414        -22.234
   1.416        -22.238
   1.418        -22.243
   1.420        -22.247
   1.423        -22.251
   1.425        -22.256
   1.427        -22.260
   1.429        -22.265
   1.431        -22.270
   1.433        -22.275
   1.436        -22.280
   1.438        -22.284
   1.440        -22.289
   1.442        -22.294
   1.444        -22.299
   1.446        -22.304
   1.449        -22.309
   1.451        -22.314
   1.453        -22.319
   1.455        -22.323
   1.457        -22.329
   1.460        -22.333
   1.462        -22.338
   1.464        -22.343
   1.466        -22.348
   1.468        -22.354
   1.470        -22.359
   1.472        -22.365
   1.475        -22.370
   1.477        -22.376
   1.479        -22.381
   1.481        -22.387
   1.483        -22.392
   1.486        -22.397
   1.488        -22.403
   1.490        -22.409
   1.492        -22.414
   1.494        -22.420
   1.496        -22.426
   1.498        -22.432
   1.501        -22.438
   1.503        -22.444
   1.505        -22.449
   1.507        -22.455
   1.509        -22.461
   1.512        -22.467
   1.514        -22.473
   1.516        -22.479
   1.518        -22.485
   1.520        -22.491
   1.522        -22.497
   1.525        -22.503
   1.527        -22.509
   1.529        -22.516
   1.531        -22.522
   1.533        -22.528
   1.535        -22.534
   1.538        -22.541
   1.540        -22.547
   1.542        -22.553
   1.544        -22.560
   1.546        -22.566
   1.549        -22.572
   1.551        -22.579
   1.553        -22.586
   1.555        -22.593
   1.557        -22.599
   1.559        -22.606
   1.561        -22.613
   1.564        -22.620
   1.566        -22.627
   1.568        -22.633
   1.570        -22.640
   1.572        -22.648
   1.575        -22.655
   1.577        -22.663
   1.579        -22.671
   1.581        -22.678
   1.583        -22.686
   1.585        -22.693
   1.588        -22.701
   1.590        -22.738
   1.592        -22.805
   1.594        -22.813
   1.596        -22.821
   1.598        -22.829
   1.601        -22.837
   1.603        -22.846
   1.605        -22.854
   1.607        -22.862
   1.609        -22.870
   1.611        -22.879
   1.614        -22.888
   1.616        -22.897
   1.618        -22.906
   1.620        -22.915
   1.622        -22.924
   1.624        -22.933
   1.627        -22.942
   1.629        -22.951
   1.631        -22.960
   1.633        -22.969
   1.635        -22.979
   1.637        -22.989
   1.640        -22.998
   1.642        -23.008
   1.644        -23.018
   1.646        -23.027
   1.648        -23.037
   1.651        -23.046
   1.653        -23.056
   1.655        -23.066
   1.657        -23.076
   1.659        -23.086
   1.661        -23.097
   1.664        -23.107
   1.666        -23.117
   1.668        -23.127
   1.670        -23.137
   1.672        -23.148
   1.674        -23.158
   1.676        -23.168
   1.679        -23.179
   1.681        -23.190
   1.683        -23.201
   1.685        -23.212
   1.687        -23.223
   1.690        -23.234
   1.692        -23.245
   1.694        -23.256
   1.696        -23.268
   1.699        -23.282
   1.701        -23.295
   1.703        -23.307
   1.705        -23.319
   1.707        -23.332
   1.709        -23.345
   1.711        -23.358
   1.714        -23.372
   1.716        -23.381
   1.718        -23.399
   1.720        -23.418
   1.722        -23.441
   1.724        -23.463
   1.727        -23.486
   1.729        -23.509
   1.731        -23.531
   1.733        -23.554
   1.735        -23.576
   1.737        -23.595
   1.739        -23.606
   1.742        -23.617
   1.744        -23.628
   1.746        -23.639
   1.748        -23.650
   1.750        -23.661
   1.753        -23.672
   1.755        -23.683
   1.757        -23.693
   1.759        -23.699
   1.761        -23.703
   1.763        -23.707
   1.766        -23.711
   1.768        -23.715
   1.770        -23.720
   1.772        -23.724
   1.774        -23.728
   1.776        -23.732
   1.779        -23.735
   1.781        -23.737
   1.783        -23.739
   1.785        -23.740
   1.787        -23.742
   1.789        -23.743
   1.792        -23.745
   1.794        -23.746
   1.796        -23.748
   1.798        -23.749
   1.800        -23.750
   1.802        -23.751
   1.805        -23.752
   1.807        -23.753
   1.809        -23.754
   1.811        -23.755
   1.813        -23.755
   1.816        -23.756
   1.818        -23.757
   1.820        -23.758
   1.822        -23.758
   1.824        -23.759
   1.826        -23.760
   1.829        -23.760
   1.831        -23.761
   1.833        -23.762
   1.835        -23.762
   1.837        -23.763
   1.839        -23.763
   1.842        -23.764
   1.844        -23.765
   1.846        -23.766
   1.848        -23.766
   1.850        -23.767
   1.852        -23.768
   1.855        -23.768
   1.857        -23.769
   1.859        -23.770
   1.861        -23.770
   1.863        -23.771
   1.865        -23.772
   1.868        -23.773
   1.870        -23.773
   1.872        -23.774
   1.874        -23.775
   1.876        -23.776
   1.878        -23.776
   1.881        -23.777
   1.883        -23.778
   1.885        -23.779
   1.887        -23.780
   1.889        -23.781
   1.891        -23.781
   1.894        -23.782
   1.896        -23.783
   1.898        -23.784
   1.900        -23.785
   1.902        -23.786
   1.905        -23.787
   1.907        -23.788
   1.909        -23.789
   1.911        -23.790
   1.913        -23.791
   1.915        -23.791
   1.918        -23.792
   1.920        -23.793
   1.922        -23.794
   1.924        -23.795
   1.926        -23.796
   1.928        -23.798
   1.931        -23.798
   1.933        -23.800
   1.935        -23.801
   1.937        -23.802
   1.939        -23.803
   1.941        -23.804
   1.944        -23.805
   1.946        -23.806
   1.948        -23.807
   1.950        -23.808
   1.952        -23.809
   1.954        -23.811
   1.957        -23.812
   1.959        -23.813
   1.961        -23.814
   1.963        -23.815
   1.965        -23.816
   1.967        -23.817
   1.970        -23.819
   1.972        -23.820
   1.974        -23.821
   1.976        -23.822
   1.978        -23.823
   1.980        -23.825
   1.983        -23.826
   1.985        -23.827
   1.987        -23.828
   1.989        -23.829
   1.991        -23.831
   1.993        -23.832
   1.996        -23.833
   1.998        -23.834
   2.000        -23.836
   2.002        -23.837
   2.004        -23.838
   2.007        -23.839
   2.009        -23.841
   2.011        -23.842
   2.013        -23.843
   2.015        -23.845
   2.017        -23.846
   2.020        -23.847
   2.022        -23.848
   2.024        -23.850
   2.026        -23.851
   2.028        -23.852
   2.030        -23.854
   2.033        -23.855
   2.035        -23.856
   2.037        -23.857
   2.039        -23.859
   2.041        -23.860
   2.043        -23.861
   2.046        -23.863
   2.048        -23.864
   2.050        -23.865
   2.052        -23.866
   2.054        -23.868
   2.056        -23.869
   2.059        -23.870
   2.061        -23.871
   2.063        -23.873
   2.065        -23.874
   2.067        -23.875
   2.069        -23.876
   2.072        -23.878
   2.074        -23.879
   2.076        -23.880
   2.078        -23.881
   2.080        -23.882
   2.083        -23.883
   2.085        -23.885
   2.087        -23.886
   2.089        -23.887
   2.091        -23.888
   2.093        -23.889
   2.096        -23.890
   2.098        -23.892
   2.100        -23.893
   2.102        -23.894
   2.104        -23.895
   2.106        -23.896
   2.109        -23.897
   2.111        -23.899
   2.113        -23.900
   2.115        -23.901
   2.117        -23.902
   2.120        -23.903
   2.122        -23.904
   2.124        -23.905
   2.126        -23.905
   2.128        -23.906
   2.130        -23.907
   2.133        -23.909
   2.135        -23.910
   2.137        -23.910
   2.139        -23.911
   2.141        -23.912
   2.143        -23.913
   2.145        -23.914
   2.148        -23.915
   2.150        -23.916
   2.152        -23.917
   2.154        -23.918
   2.157        -23.919
   2.158        -23.920
   2.161        -23.921
   2.163        -23.921
   2.165        -23.922
   2.167        -23.923
   2.169        -23.924
   2.172        -23.925
   2.174        -23.926
   2.176        -23.926
   2.178        -23.927
   2.180        -23.928
   2.183        -23.929
   2.185        -23.930
   2.187        -23.930
   2.189        -23.931
   2.191        -23.932
   2.193        -23.933
   2.195        -23.933
   2.197        -23.934
   2.200        -23.935
   2.202        -23.936
   2.204        -23.937
   2.206        -23.937
   2.208        -23.938
   2.211        -23.939
   2.213        -23.939
   2.215        -23.940
   2.217        -23.941
   2.219        -23.942
   2.221        -23.942
   2.224        -23.943
   2.226        -23.943
   2.228        -23.944
   2.230        -23.945
   2.232        -23.945
   2.235        -23.946
   2.237        -23.947
   2.239        -23.947
   2.241        -23.948
   2.243        -23.949
   2.245        -23.949
   2.247        -23.950
   2.250        -23.950
   2.252        -23.951
   2.254        -23.952
   2.256        -23.952
   2.259        -23.953
   2.261        -23.954
   2.263        -23.954
   2.265        -23.955
   2.267        -23.955
   2.269        -23.956
   2.271        -23.956
   2.274        -23.957
   2.276        -23.957
   2.278        -23.958
   2.280        -23.959
   2.282        -23.959
   2.284        -23.960
   2.287        -23.960
   2.289        -23.961
   2.291        -23.962
   2.293        -23.962
   2.295        -23.963
   2.297        -23.964
   2.299        -23.964
   2.302        -23.965
   2.304        -23.965
   2.306        -23.966
   2.308        -23.966
   2.310        -23.967
   2.313        -23.968
   2.315        -23.968
   2.317        -23.969
   2.319        -23.970
   2.321        -23.970
   2.323        -23.971
   2.326        -23.972
   2.328        -23.972
   2.330        -23.973
   2.332        -23.974
   2.334        -23.975
   2.337        -23.975
   2.339        -23.976
   2.341        -23.977
   2.343        -23.978
   2.345        -23.978
   2.347        -23.979
   2.349        -23.980
   2.352        -23.981
   2.354        -23.982
   2.356        -23.982
   2.358        -23.983
   2.360        -23.984
   2.363        -23.985
   2.365        -23.986
   2.367        -23.987
   2.369        -23.988
   2.371        -23.989
   2.374        -23.990
   2.376        -23.991
   2.378        -23.992
   2.380        -23.992
   2.382        -23.993
   2.384        -23.995
   2.386        -23.996
   2.389        -23.997
   2.391        -23.998
   2.393        -23.999
   2.395        -24.000
   2.397        -24.002
   2.400        -24.003
   2.402        -24.004
   2.404        -24.005
   2.406        -24.007
   2.408        -24.008
   2.410        -24.009
   2.413        -24.011
   2.415        -24.012
   2.417        -24.014
   2.419        -24.015
   2.421        -24.016
   2.423        -24.018
   2.425        -24.019
   2.428        -24.021
   2.430        -24.023
   2.432        -24.024
   2.434        -24.026
   2.436        -24.028
   2.439        -24.029
   2.441        -24.031
   2.443        -24.032
   2.445        -24.034
   2.447        -24.036
   2.449        -24.038
   2.452        -24.040
   2.454        -24.042
   2.456        -24.043
   2.458        -24.045
   2.460        -24.047
   2.462        -24.049
   2.465        -24.051
   2.467        -24.053
   2.469        -24.055
   2.471        -24.057
   2.473        -24.060
   2.475        -24.062
   2.478        -24.064
   2.480        -24.066
   2.482        -24.068
   2.484        -24.070
   2.486        -24.073
   2.489        -24.075
   2.491        -24.078
   2.493        -24.080
   2.495        -24.083
   2.497        -24.085
   2.499        -24.088
   2.502        -24.090
   2.504        -24.093
   2.506        -24.096
   2.508        -24.098
   2.510        -24.101
   2.512        -24.104
   2.514        -24.107
   2.517        -24.109
   2.519        -24.112
   2.521        -24.115
   2.523        -24.118
   2.525        -24.121
   2.528        -24.124
   2.530        -24.127
   2.532        -24.130
   2.534        -24.133
   2.536        -24.136
   2.538        -24.139
   2.541        -24.142
   2.543        -24.145
   2.545        -24.148
   2.547        -24.151
   2.549        -24.155
   2.552        -24.158
   2.554        -24.161
   2.556        -24.165
   2.558        -24.168
   2.560        -24.171
   2.562        -24.174
   2.565        -24.178
   2.567        -24.181
   2.569        -24.184
   2.571        -24.188
   2.573        -24.191
   2.575        -24.195
   2.578        -24.198
   2.580        -24.201
   2.582        -24.205
   2.584        -24.208
   2.586        -24.212
   2.588        -24.215
   2.590        -24.219
   2.593        -24.222
   2.595        -24.226
   2.597        -24.230
   2.599        -24.233
   2.601        -24.237
   2.604        -24.240
   2.606        -24.244
   2.608        -24.247
   2.610        -24.251
   2.612        -24.254
   2.614        -24.258
   2.617        -24.262
   2.619        -24.265
   2.621        -24.269
   2.623        -24.273
   2.625        -24.276
   2.627        -24.280
   2.630        -24.283
   2.632        -24.287
   2.634        -24.290
   2.636        -24.294
   2.638        -24.298
   2.641        -24.301
   2.643        -24.305
   2.645        -24.309
   2.647        -24.312
   2.649        -24.316
   2.651        -24.320
   2.654        -24.323
   2.656        -24.327
   2.658        -24.330
   2.660        -24.334
   2.662        -24.338
   2.664        -24.341
   2.666        -24.345
   2.669        -24.348
   2.671        -24.352
   2.673        -24.355
   2.675        -24.359
   2.677        -24.362
   2.680        -24.366
   2.682        -24.369
   2.684        -24.373
   2.686        -24.376
   2.688        -24.380
   2.690        -24.383
   2.693        -24.387
   2.695        -24.390
   2.697        -24.393
   2.699        -24.396
   2.701        -24.399
   2.703        -24.402
   2.706        -24.405
   2.708        -24.408
   2.710        -24.411
   2.712        -24.414
   2.714        -24.417
   2.716        -24.420
   2.719        -24.422
   2.721        -24.425
   2.723        -24.427
   2.725        -24.429
   2.727        -24.432
   2.729        -24.434
   2.732        -24.437
   2.734        -24.439
   2.736        -24.441
   2.738        -24.444
   2.740        -24.446
   2.743        -24.448
   2.745        -24.450
   2.747        -24.452
   2.749        -24.454
   2.751        -24.456
   2.753        -24.458
   2.756        -24.460
   2.758        -24.462
   2.760        -24.464
   2.762        -24.465
   2.764        -24.467
   2.766        -24.469
   2.769        -24.471
   2.771        -24.473
   2.773        -24.474
   2.775        -24.476
   2.777        -24.478
   2.779        -24.480
   2.782        -24.481
   2.784        -24.483
   2.786        -24.485
   2.788        -24.486
   2.790        -24.488
   2.792        -24.489
   2.795        -24.491
   2.797        -24.493
   2.799        -24.494
   2.801        -24.496
   2.803        -24.497
   2.805        -24.499
   2.808        -24.500
   2.810        -24.502
   2.812        -24.503
   2.814        -24.504
   2.816        -24.506
   2.819        -24.507
   2.821        -24.509
   2.823        -24.510
   2.825        -24.511
   2.827        -24.513
   2.829        -24.514
   2.832        -24.515
   2.834        -24.517
   2.836        -24.518
   2.838        -24.519
   2.840        -24.521
   2.842        -24.522
   2.845        -24.523
   2.847        -24.524
   2.849        -24.526
   2.851        -24.527
   2.853        -24.528
   2.855        -24.529
   2.858        -24.530
   2.860        -24.532
   2.862        -24.533
   2.864        -24.534
   2.866        -24.535
   2.868        -24.536
   2.871        -24.537
   2.873        -24.538
   2.875        -24.539
   2.877        -24.540
   2.879        -24.542
   2.881        -24.543
   2.884        -24.544
   2.886        -24.545
   2.888        -24.546
   2.890        -24.547
   2.892        -24.548
   2.894        -24.549
   2.897        -24.550
   2.899        -24.551
   2.901        -24.552
   2.903        -24.553
   2.905        -24.554
   2.908        -24.555
   2.910        -24.556
   2.912        -24.557
   2.914        -24.558
   2.916        -24.559
   2.918        -24.560
   2.921        -24.561
   2.923        -24.562
   2.925        -24.563
   2.927        -24.564
   2.929        -24.565
   2.931        -24.566
   2.934        -24.566
   2.936        -24.567
   2.938        -24.568
   2.940        -24.569
   2.942        -24.570
   2.944        -24.571
   2.947        -24.572
   2.949        -24.573
   2.951        -24.574
   2.953        -24.575
   2.955        -24.575
   2.957        -24.576
   2.960        -24.577
   2.962        -24.578
   2.964        -24.579
   2.966        -24.580
   2.968        -24.581
   2.970        -24.582
   2.973        -24.583
   2.975        -24.583
   2.977        -24.584
   2.979        -24.585
   2.981        -24.586
   2.984        -24.587
   2.986        -24.588
   2.988        -24.589
   2.990        -24.590
   2.992        -24.591
   2.994        -24.591
   2.997        -24.592
   2.999        -24.593
   3.001        -24.594
   3.003        -24.595
   3.005        -24.596
   3.007        -24.597
   3.010        -24.598
   3.012        -24.599
   3.014        -24.600
   3.016        -24.600
   3.018        -24.601
   3.020        -24.602
   3.023        -24.603
   3.025        -24.604
   3.027        -24.605
   3.029        -24.606
   3.031        -24.607
   3.033        -24.608
   3.036        -24.609
   3.038        -24.610
   3.040        -24.610
   3.042        -24.611
   3.044        -24.612
   3.046        -24.613
   3.049        -24.614
   3.051        -24.615
   3.053        -24.616
   3.055        -24.617
   3.057        -24.618
   3.060        -24.619
   3.062        -24.620
   3.064        -24.621
   3.066        -24.622
   3.068        -24.622
   3.070        -24.623
   3.073        -24.624
   3.075        -24.625
   3.077        -24.626
   3.079        -24.627
   3.081        -24.628
   3.083        -24.629
   3.086        -24.630
   3.088        -24.631
   3.090        -24.632
   3.092        -24.633
   3.094        -24.634
   3.096        -24.634
   3.099        -24.635
   3.101        -24.636
   3.103        -24.637
   3.105        -24.638
   3.107        -24.639
   3.109        -24.640
   3.112        -24.641
   3.114        -24.642
   3.116        -24.643
   3.118        -24.644
   3.120        -24.645
   3.123        -24.646
   3.125        -24.647
   3.127        -24.648
   3.129        -24.648
   3.131        -24.649
   3.133        -24.651
   3.136        -24.651
   3.138        -24.652
   3.140        -24.653
   3.142        -24.654
   3.144        -24.655
   3.146        -24.656
   3.149        -24.657
   3.151        -24.658
   3.153        -24.659
   3.155        -24.660
   3.157        -24.661
   3.159        -24.662
   3.162        -24.663
   3.164        -24.664
   3.166        -24.665
   3.168        -24.666
   3.170        -24.667
   3.172        -24.668
   3.175        -24.669
   3.177        -24.670
   3.179        -24.671
   3.181        -24.672
   3.183        -24.673
   3.185        -24.674
   3.188        -24.675
   3.190        -24.676
   3.192        -24.677
   3.194        -24.678
   3.196        -24.679
   3.199        -24.679
   3.201        -24.680
   3.203        -24.682
   3.205        -24.682
   3.207        -24.683
   3.209        -24.684
   3.212        -24.686
   3.214        -24.686
   3.216        -24.687
   3.218        -24.688
   3.220        -24.689
   3.222        -24.690
   3.225        -24.691
   3.227        -24.692
   3.229        -24.693
   3.231        -24.694
   3.233        -24.695
   3.236        -24.696
   3.237        -24.697
   3.240        -24.698
   3.242        -24.699
   3.244        -24.700
   3.246        -24.701
   3.248        -24.702
   3.251        -24.703
   3.253        -24.704
   3.255        -24.705
   3.257        -24.706
   3.259        -24.707
   3.261        -24.708
   3.263        -24.708
   3.266        -24.709
   3.268        -24.711
   3.270        -24.711
   3.272        -24.712
   3.274        -24.713
   3.277        -24.714
   3.279        -24.715
   3.281        -24.716
   3.283        -24.717
   3.285        -24.718
   3.287        -24.719
   3.290        -24.720
   3.292        -24.721
   3.294        -24.722
   3.296        -24.723
   3.298        -24.724
   3.301        -24.725
   3.303        -24.726
   3.305        -24.727
   3.307        -24.728
   3.309        -24.729
   3.311        -24.730
   3.313        -24.731
   3.316        -24.732
   3.318        -24.733
   3.320        -24.734
   3.322        -24.735
   3.324        -24.736
   3.327        -24.737
   3.329        -24.738
   3.331        -24.739
   3.333        -24.740
   3.335        -24.740
   3.337        -24.742
   3.340        -24.743
   3.342        -24.744
   3.344        -24.744
   3.346        -24.746
   3.348        -24.747
   3.350        -24.747
   3.352        -24.748
   3.355        -24.749
   3.357        -24.750
   3.359        -24.752
   3.361        -24.752
   3.363        -24.753
   3.366        -24.754
   3.368        -24.755
   3.370        -24.756
   3.372        -24.757
   3.374        -24.758
   3.376        -24.759
   3.379        -24.760
   3.381        -24.761
   3.383        -24.762
   3.385        -24.763
   3.387        -24.764
   3.389        -24.765
   3.392        -24.765
   3.394        -24.766
   3.396        -24.768
   3.398        -24.768
   3.400        -24.769
   3.402        -24.770
   3.405        -24.771
   3.407        -24.772
   3.409        -24.773
   3.411        -24.774
   3.413        -24.775
   3.416        -24.776
   3.418        -24.777
   3.420        -24.777
   3.422        -24.778
   3.424        -24.779
   3.426        -24.780
   3.429        -24.781
   3.431        -24.782
   3.433        -24.783
   3.435        -24.784
   3.437        -24.785
   3.439        -24.786
   3.442        -24.787
   3.444        -24.787
   3.446        -24.788
   3.448        -24.789
   3.450        -24.790
   3.452        -24.791
   3.455        -24.792
   3.457        -24.793
   3.459        -24.794
   3.461        -24.795
   3.463        -24.796
   3.466        -24.797
   3.468        -24.797
   3.470        -24.798
   3.472        -24.799
   3.474        -24.800
   3.476        -24.801
   3.478        -24.802
   3.481        -24.803
   3.483        -24.804
   3.485        -24.805
   3.487        -24.806
   3.489        -24.807
   3.492        -24.808
   3.494        -24.809
   3.496        -24.810
   3.498        -24.811
   3.500        -24.811
   3.502        -24.812
   3.505        -24.813
   3.507        -24.814
   3.509        -24.815
   3.511        -24.816
   3.513        -24.817
   3.515        -24.818
   3.518        -24.819
   3.520        -24.819
   3.522        -24.821
   3.524        -24.821
   3.526        -24.822
   3.528        -24.823
   3.531        -24.824
   3.533        -24.825
   3.535        -24.826
   3.537        -24.827
   3.539        -24.828
   3.541        -24.829
   3.544        -24.830
   3.546        -24.831
   3.548        -24.832
   3.550        -24.832
   3.552        -24.834
   3.555        -24.834
   3.557        -24.836
   3.559        -24.836
   3.561        -24.837
   3.563        -24.838
   3.565        -24.839
   3.568        -24.840
   3.570        -24.841
   3.572        -24.842
   3.574        -24.843
   3.576        -24.844
   3.578        -24.845
   3.581        -24.846
   3.583        -24.847
   3.585        -24.848
   3.587        -24.849
   3.589        -24.850
   3.591        -24.851
   3.594        -24.852
   3.596        -24.853
   3.598        -24.854
   3.600        -24.855
   3.602        -24.855
   3.604        -24.856
   3.607        -24.857
   3.609        -24.858
   3.611        -24.859
   3.613        -24.860
   3.615        -24.861
   3.617        -24.862
   3.620        -24.864
   3.622        -24.864
   3.624        -24.865
   3.626        -24.866
   3.628        -24.867
   3.630        -24.868
   3.633        -24.869
   3.635        -24.870
   3.637        -24.871
   3.639        -24.872
   3.641        -24.874
   3.644        -24.875
   3.646        -24.875
   3.648        -24.876
   3.650        -24.877
   3.652        -24.879
   3.654        -24.880
   3.657        -24.881
   3.659        -24.882
   3.661        -24.883
   3.663        -24.884
   3.665        -24.885
   3.667        -24.886
   3.670        -24.887
   3.672        -24.888
   3.674        -24.889
   3.676        -24.890
   3.678        -24.891
   3.680        -24.892
   3.683        -24.893
   3.685        -24.894
   3.687        -24.895
   3.689        -24.896
   3.691        -24.897
   3.693        -24.898
   3.696        -24.899
   3.698        -24.900
   3.700        -24.901
   3.702        -24.902
   3.704        -24.903
   3.706        -24.904
   3.709        -24.906
   3.711        -24.907
   3.713        -24.908
   3.715        -24.909
   3.717        -24.910
   3.719        -24.911
   3.722        -24.912
   3.724        -24.913
   3.726        -24.914
   3.728        -24.915
   3.730        -24.916
   3.733        -24.917
   3.735        -24.918
   3.737        -24.919
   3.739        -24.920
   3.741        -24.921
   3.743        -24.922
   3.746        -24.924
   3.748        -24.925
   3.750        -24.926
   3.752        -24.927
   3.754        -24.928
   3.756        -24.929
   3.759        -24.930
   3.761        -24.931
   3.763        -24.932
   3.765        -24.933
   3.767        -24.934
   3.769        -24.935
   3.772        -24.936
   3.774        -24.937
   3.776        -24.938
   3.778        -24.939
   3.780        -24.941
   3.782        -24.942
   3.785        -24.943
   3.787        -24.944
   3.789        -24.945
   3.791        -24.946
   3.793        -24.947
   3.795        -24.948
   3.798        -24.949
   3.800        -24.950
   3.802        -24.951
   3.804        -24.952
   3.806        -24.953
   3.809        -24.955
   3.811        -24.955
   3.813        -24.957
   3.815        -24.958
   3.817        -24.959
   3.819        -24.960
   3.822        -24.961
   3.824        -24.962
   3.826        -24.963
   3.828        -24.964
   3.830        -24.965
   3.832        -24.966
   3.835        -24.967
   3.837        -24.968
   3.839        -24.968
   3.841        -24.969
   3.843        -24.970
   3.845        -24.971
   3.848        -24.972
   3.850        -24.972
   3.852        -24.973
   3.854        -24.974
   3.856        -24.975
   3.858        -24.975
   3.861        -24.976
   3.863        -24.977
   3.865        -24.977
   3.867        -24.978
   3.869        -24.979
   3.871        -24.979
   3.874        -24.980
   3.876        -24.981
   3.878        -24.981
   3.880        -24.982
   3.882        -24.983
   3.885        -24.983
   3.887        -24.984
   3.889        -24.985
   3.891        -24.985
   3.899        -24.987
   3.912        -24.991
   3.925        -24.995
   3.938        -24.999
   3.951        -25.003
   3.964        -25.006
   3.977        -25.010
   3.990        -25.014
   4.003        -25.018
   4.016        -25.022
   4.029        -25.027
   4.042        -25.031
   4.055        -25.035
   4.068        -25.040
   4.081        -25.045
   4.094        -25.050
   4.107        -25.055
   4.120        -25.060
   4.133        -25.065
   4.146        -25.071
   4.159        -25.076
   4.172        -25.082
   4.185        -25.089
   4.198        -25.096
   4.211        -25.103
   4.224        -25.110
   4.237        -25.117
   4.250        -25.125
   4.263        -25.134
   4.276        -25.143
   4.289        -25.152
   4.302        -25.161
   4.315        -25.171
   4.328        -25.181
   4.341        -25.192
   4.354        -25.203
   4.367        -25.214
   4.380        -25.225
   4.393        -25.237
   4.406        -25.249
   4.420        -25.262
   4.432        -25.274
   4.445        -25.287
   4.459        -25.300
   4.471        -25.313
   4.484        -25.327
   4.498        -25.341
   4.510        -25.354
   4.524        -25.369
   4.537        -25.383
   4.550        -25.397
   4.563        -25.412
   4.576        -25.427
   4.589        -25.442
   4.602        -25.457
   4.615        -25.472
   4.628        -25.487
   4.641        -25.503
   4.654        -25.519
   4.667        -25.535
   4.680        -25.551
   4.693        -25.567
   4.706        -25.583
   4.719        -25.600
   4.732        -25.616
   4.745        -25.633
   4.758        -25.650
   4.771        -25.667
   4.784        -25.684
   4.797        -25.701
   4.810        -25.718
   4.823        -25.736
   4.836        -25.754
   4.849        -25.771
   4.862        -25.789
   4.875        -25.808
   4.888        -25.826
   4.901        -25.844
   4.914        -25.863
   4.927        -25.881
   4.940        -25.900
   4.953        -25.919
   4.966        -25.938
   4.979        -25.957
   4.992        -25.977
   5.005        -25.996
   5.018        -26.015
   5.031        -26.035
   5.044        -26.054
   5.057        -26.074
   5.070        -26.094
   5.083        -26.114
   5.096        -26.134
   5.109        -26.155
   5.123        -26.175
   5.136        -26.195
   5.149        -26.216
   5.162        -26.236
   5.175        -26.257
   5.188        -26.277
   5.201        -26.298
   5.214        -26.319
   5.227        -26.340
   5.240        -26.361
   5.253        -26.382
   5.266        -26.403
   5.279        -26.425
   5.292        -26.446
   5.305        -26.468
   5.318        -26.490
   5.331        -26.512
   5.344        -26.535
   5.357        -26.557
   5.370        -26.580
   5.383        -26.602
   5.396        -26.626
   5.409        -26.649
   5.422        -26.673
   5.435        -26.697
   5.448        -26.721
   5.461        -26.746
   5.474        -26.771
   5.487        -26.796
   5.500        -26.821
   5.513        -26.847
   5.526        -26.873
   5.539        -26.900
   5.552        -26.926
   5.565        -26.953
   5.578        -26.981
   5.591        -27.009
   5.604        -27.038
   5.617        -27.067
   5.630        -27.096
   5.643        -27.126
   5.656        -27.156
   5.669        -27.186
   5.682        -27.218
   5.695        -27.249
   5.708        -27.281
   5.721        -27.314
   5.734        -27.347
   5.748        -27.381
   5.761        -27.416
   5.774        -27.450
   5.787        -27.486
   5.800        -27.523
   5.813        -27.559
   5.826        -27.597
   5.839        -27.635
   5.852        -27.674
   5.865        -27.714
   5.878        -27.754
   5.891        -27.796
   5.904        -27.838
   5.917        -27.880
   5.930        -27.924
   5.943        -27.968
   5.956        -28.013
   5.969        -28.059
   5.982        -28.107
   5.995        -28.155
   6.008        -28.205
   6.021        -28.254
   6.034        -28.305
   6.047        -28.357
   6.060        -28.411
   6.073        -28.465
   6.086        -28.520
   6.099        -28.577
   6.112        -28.635
   6.125        -28.694
   6.138        -28.754
   6.151        -28.816
   6.164        -28.879
   6.177        -28.944
   6.190        -29.009
   6.203        -29.077
   6.216        -29.146
   6.229        -29.216
   6.242        -29.288
   6.255        -29.361
   6.268        -29.437
   6.281        -29.514
   6.294        -29.592
   6.307        -29.672
   6.320        -29.755
   6.334        -29.839
   6.346        -29.926
   6.359        -30.014
   6.372        -30.104
   6.386        -30.197
   6.399        -30.292
   6.411        -30.389
   6.425        -30.488
   6.438        -30.590
   6.451        -30.694
   6.464        -30.800
   6.477        -30.909
   6.490        -31.021
   6.503        -31.137
   6.516        -31.254
   6.529        -31.374
   6.542        -31.498
   6.555        -31.626
   6.568        -31.755
   6.581        -31.888
   6.594        -32.025
   6.607        -32.167
   6.620        -32.311
   6.633        -32.457
   6.646        -32.606
   6.659        -32.761
   6.672        -32.921
   6.685        -33.084
   6.698        -33.251
   6.711        -33.424
   6.724        -33.602
   6.737        -33.783
   6.750        -33.967
   6.763        -34.163
   6.776        -34.367
   6.789        -34.572
   6.802        -34.782
   6.815        -34.999
   6.828        -35.247
   6.841        -35.517
   6.854        -35.831
   6.867        -36.484
   6.880        -37.572
