# log Energy    log Jnu
# (eV)          (ergs/s/cm2/Hz/Sr)
  -6.864        -20.898
  -6.820        -20.811
  -6.777        -20.724
  -6.734        -20.637
  -6.690        -20.550
  -6.647        -20.464
  -6.603        -20.377
  -6.560        -20.290
  -6.516        -20.203
  -6.473        -20.116
  -6.430        -20.029
  -6.386        -19.943
  -6.343        -19.856
  -6.299        -19.769
  -6.256        -19.682
  -6.212        -19.595
  -6.169        -19.509
  -6.126        -19.422
  -6.082        -19.335
  -6.039        -19.248
  -5.995        -19.161
  -5.952        -19.075
  -5.908        -18.988
  -5.865        -18.901
  -5.822        -18.814
  -5.778        -18.728
  -5.735        -18.641
  -5.691        -18.554
  -5.648        -18.467
  -5.605        -18.381
  -5.561        -18.294
  -5.518        -18.208
  -5.474        -18.121
  -5.431        -18.034
  -5.387        -17.948
  -5.344        -17.861
  -5.300        -17.775
  -5.257        -17.689
  -5.214        -17.602
  -5.170        -17.516
  -5.127        -17.430
  -5.083        -17.343
  -5.040        -17.257
  -4.996        -17.171
  -4.953        -17.085
  -4.910        -16.999
  -4.866        -16.913
  -4.823        -16.828
  -4.779        -16.742
  -4.736        -16.656
  -4.692        -16.571
  -4.649        -16.486
  -4.606        -16.401
  -4.562        -16.317
  -4.519        -16.232
  -4.475        -16.148
  -4.432        -16.064
  -4.388        -15.980
  -4.345        -15.897
  -4.302        -15.814
  -4.258        -15.732
  -4.215        -15.650
  -4.171        -15.568
  -4.128        -15.487
  -4.084        -15.407
  -4.041        -15.328
  -3.998        -15.249
  -3.954        -15.171
  -3.911        -15.094
  -3.867        -15.019
  -3.824        -14.945
  -3.781        -14.872
  -3.737        -14.800
  -3.693        -14.731
  -3.650        -14.664
  -3.607        -14.599
  -3.584        -14.569
  -3.582        -14.561
  -3.580        -14.560
  -3.577        -14.557
  -3.575        -14.554
  -3.573        -14.551
  -3.571        -14.548
  -3.569        -14.545
  -3.567        -14.542
  -3.564        -14.539
  -3.562        -14.536
  -3.560        -14.533
  -3.558        -14.530
  -3.556        -14.527
  -3.554        -14.524
  -3.551        -14.521
  -3.549        -14.518
  -3.547        -14.515
  -3.545        -14.512
  -3.543        -14.509
  -3.540        -14.506
  -3.538        -14.503
  -3.536        -14.500
  -3.534        -14.497
  -3.532        -14.494
  -3.530        -14.491
  -3.528        -14.488
  -3.525        -14.485
  -3.523        -14.482
  -3.521        -14.479
  -3.519        -14.476
  -3.517        -14.473
  -3.514        -14.470
  -3.512        -14.468
  -3.510        -14.465
  -3.508        -14.462
  -3.506        -14.459
  -3.504        -14.456
  -3.502        -14.453
  -3.499        -14.451
  -3.497        -14.448
  -3.495        -14.445
  -3.493        -14.442
  -3.491        -14.439
  -3.488        -14.436
  -3.486        -14.434
  -3.484        -14.431
  -3.482        -14.428
  -3.480        -14.426
  -3.477        -14.423
  -3.475        -14.420
  -3.473        -14.417
  -3.471        -14.415
  -3.469        -14.412
  -3.467        -14.409
  -3.464        -14.407
  -3.462        -14.404
  -3.460        -14.401
  -3.458        -14.399
  -3.456        -14.396
  -3.454        -14.393
  -3.451        -14.391
  -3.449        -14.388
  -3.447        -14.385
  -3.445        -14.383
  -3.443        -14.380
  -3.441        -14.378
  -3.438        -14.375
  -3.436        -14.373
  -3.434        -14.370
  -3.432        -14.368
  -3.430        -14.365
  -3.428        -14.363
  -3.425        -14.360
  -3.423        -14.358
  -3.421        -14.355
  -3.419        -14.353
  -3.417        -14.350
  -3.415        -14.348
  -3.412        -14.345
  -3.410        -14.343
  -3.408        -14.341
  -3.406        -14.338
  -3.404        -14.336
  -3.402        -14.333
  -3.399        -14.331
  -3.397        -14.329
  -3.395        -14.326
  -3.393        -14.324
  -3.391        -14.322
  -3.389        -14.319
  -3.386        -14.317
  -3.384        -14.315
  -3.382        -14.313
  -3.380        -14.310
  -3.378        -14.308
  -3.376        -14.306
  -3.373        -14.304
  -3.371        -14.301
  -3.369        -14.299
  -3.367        -14.297
  -3.365        -14.295
  -3.362        -14.293
  -3.360        -14.291
  -3.358        -14.289
  -3.356        -14.286
  -3.354        -14.284
  -3.352        -14.282
  -3.349        -14.280
  -3.347        -14.278
  -3.345        -14.276
  -3.343        -14.274
  -3.341        -14.272
  -3.339        -14.270
  -3.336        -14.268
  -3.334        -14.266
  -3.332        -14.264
  -3.330        -14.262
  -3.328        -14.260
  -3.326        -14.258
  -3.323        -14.256
  -3.321        -14.255
  -3.319        -14.253
  -3.317        -14.251
  -3.315        -14.249
  -3.313        -14.247
  -3.310        -14.245
  -3.308        -14.244
  -3.306        -14.242
  -3.304        -14.240
  -3.302        -14.238
  -3.300        -14.237
  -3.297        -14.235
  -3.295        -14.233
  -3.293        -14.231
  -3.291        -14.230
  -3.289        -14.228
  -3.287        -14.227
  -3.284        -14.225
  -3.282        -14.223
  -3.280        -14.222
  -3.278        -14.220
  -3.276        -14.219
  -3.273        -14.217
  -3.271        -14.216
  -3.269        -14.214
  -3.267        -14.213
  -3.265        -14.211
  -3.263        -14.210
  -3.260        -14.208
  -3.258        -14.207
  -3.256        -14.205
  -3.254        -14.204
  -3.252        -14.203
  -3.250        -14.201
  -3.247        -14.200
  -3.245        -14.199
  -3.243        -14.197
  -3.241        -14.196
  -3.239        -14.195
  -3.237        -14.194
  -3.234        -14.193
  -3.232        -14.191
  -3.230        -14.190
  -3.228        -14.189
  -3.226        -14.188
  -3.224        -14.186
  -3.221        -14.185
  -3.219        -14.184
  -3.217        -14.184
  -3.215        -14.182
  -3.213        -14.182
  -3.211        -14.180
  -3.208        -14.179
  -3.206        -14.179
  -3.204        -14.178
  -3.202        -14.177
  -3.200        -14.176
  -3.197        -14.175
  -3.195        -14.174
  -3.193        -14.173
  -3.191        -14.172
  -3.189        -14.172
  -3.187        -14.171
  -3.184        -14.170
  -3.182        -14.169
  -3.180        -14.169
  -3.178        -14.168
  -3.176        -14.167
  -3.174        -14.167
  -3.171        -14.166
  -3.169        -14.165
  -3.167        -14.165
  -3.165        -14.164
  -3.163        -14.164
  -3.161        -14.163
  -3.158        -14.163
  -3.156        -14.162
  -3.154        -14.162
  -3.152        -14.162
  -3.150        -14.161
  -3.148        -14.161
  -3.145        -14.161
  -3.143        -14.160
  -3.141        -14.160
  -3.139        -14.160
  -3.137        -14.160
  -3.135        -14.159
  -3.132        -14.159
  -3.130        -14.159
  -3.128        -14.159
  -3.126        -14.159
  -3.124        -14.159
  -3.122        -14.159
  -3.119        -14.159
  -3.117        -14.159
  -3.115        -14.159
  -3.113        -14.159
  -3.111        -14.159
  -3.108        -14.159
  -3.106        -14.159
  -3.104        -14.159
  -3.102        -14.160
  -3.100        -14.160
  -3.098        -14.160
  -3.095        -14.160
  -3.093        -14.161
  -3.091        -14.161
  -3.089        -14.162
  -3.087        -14.162
  -3.085        -14.162
  -3.082        -14.163
  -3.080        -14.163
  -3.078        -14.164
  -3.076        -14.164
  -3.074        -14.165
  -3.072        -14.166
  -3.069        -14.166
  -3.067        -14.167
  -3.065        -14.168
  -3.063        -14.168
  -3.061        -14.169
  -3.059        -14.170
  -3.056        -14.171
  -3.054        -14.172
  -3.052        -14.172
  -3.050        -14.173
  -3.048        -14.174
  -3.046        -14.175
  -3.043        -14.176
  -3.041        -14.177
  -3.039        -14.179
  -3.037        -14.180
  -3.035        -14.181
  -3.032        -14.182
  -3.030        -14.183
  -3.028        -14.185
  -3.026        -14.186
  -3.024        -14.187
  -3.022        -14.188
  -3.019        -14.190
  -3.017        -14.191
  -3.015        -14.193
  -3.013        -14.194
  -3.011        -14.196
  -3.009        -14.198
  -3.006        -14.199
  -3.004        -14.201
  -3.002        -14.202
  -3.000        -14.204
  -2.998        -14.206
  -2.996        -14.208
  -2.993        -14.210
  -2.991        -14.212
  -2.989        -14.213
  -2.987        -14.215
  -2.985        -14.217
  -2.983        -14.220
  -2.980        -14.221
  -2.978        -14.224
  -2.976        -14.226
  -2.974        -14.228
  -2.972        -14.230
  -2.970        -14.233
  -2.967        -14.235
  -2.965        -14.237
  -2.963        -14.240
  -2.961        -14.242
  -2.959        -14.245
  -2.956        -14.247
  -2.954        -14.250
  -2.952        -14.252
  -2.950        -14.255
  -2.948        -14.258
  -2.946        -14.260
  -2.944        -14.263
  -2.941        -14.266
  -2.939        -14.269
  -2.937        -14.272
  -2.935        -14.275
  -2.933        -14.278
  -2.930        -14.281
  -2.928        -14.284
  -2.926        -14.287
  -2.924        -14.290
  -2.922        -14.294
  -2.920        -14.297
  -2.917        -14.300
  -2.915        -14.304
  -2.913        -14.307
  -2.911        -14.310
  -2.909        -14.314
  -2.907        -14.317
  -2.904        -14.321
  -2.902        -14.325
  -2.900        -14.328
  -2.898        -14.332
  -2.896        -14.336
  -2.894        -14.340
  -2.891        -14.344
  -2.889        -14.348
  -2.887        -14.352
  -2.885        -14.356
  -2.883        -14.360
  -2.880        -14.364
  -2.878        -14.368
  -2.876        -14.372
  -2.874        -14.377
  -2.872        -14.381
  -2.870        -14.385
  -2.867        -14.390
  -2.865        -14.395
  -2.863        -14.399
  -2.861        -14.403
  -2.859        -14.409
  -2.857        -14.413
  -2.855        -14.418
  -2.852        -14.423
  -2.850        -14.428
  -2.848        -14.433
  -2.846        -14.438
  -2.843        -14.443
  -2.842        -14.448
  -2.839        -14.453
  -2.837        -14.458
  -2.835        -14.464
  -2.833        -14.469
  -2.831        -14.474
  -2.828        -14.480
  -2.826        -14.486
  -2.824        -14.491
  -2.822        -14.497
  -2.820        -14.502
  -2.817        -14.508
  -2.815        -14.514
  -2.813        -14.520
  -2.811        -14.526
  -2.809        -14.532
  -2.807        -14.538
  -2.805        -14.544
  -2.802        -14.550
  -2.800        -14.557
  -2.798        -14.563
  -2.796        -14.569
  -2.794        -14.576
  -2.792        -14.582
  -2.789        -14.589
  -2.787        -14.596
  -2.785        -14.602
  -2.783        -14.609
  -2.781        -14.616
  -2.779        -14.623
  -2.776        -14.630
  -2.774        -14.637
  -2.772        -14.644
  -2.770        -14.651
  -2.767        -14.659
  -2.765        -14.666
  -2.763        -14.673
  -2.761        -14.680
  -2.759        -14.688
  -2.757        -14.696
  -2.754        -14.703
  -2.753        -14.711
  -2.750        -14.719
  -2.748        -14.727
  -2.746        -14.735
  -2.744        -14.743
  -2.741        -14.751
  -2.739        -14.759
  -2.737        -14.767
  -2.735        -14.775
  -2.733        -14.784
  -2.731        -14.792
  -2.729        -14.801
  -2.726        -14.809
  -2.724        -14.818
  -2.722        -14.827
  -2.720        -14.836
  -2.718        -14.845
  -2.716        -14.854
  -2.713        -14.862
  -2.711        -14.872
  -2.709        -14.881
  -2.707        -14.890
  -2.705        -14.900
  -2.703        -14.909
  -2.700        -14.919
  -2.698        -14.928
  -2.696        -14.938
  -2.694        -14.948
  -2.692        -14.958
  -2.689        -14.968
  -2.687        -14.977
  -2.685        -14.988
  -2.683        -14.998
  -2.681        -15.008
  -2.679        -15.018
  -2.677        -15.029
  -2.674        -15.040
  -2.672        -15.050
  -2.670        -15.061
  -2.668        -15.071
  -2.666        -15.082
  -2.663        -15.093
  -2.661        -15.104
  -2.659        -15.115
  -2.657        -15.127
  -2.655        -15.138
  -2.653        -15.149
  -2.650        -15.161
  -2.648        -15.172
  -2.646        -15.184
  -2.644        -15.196
  -2.642        -15.208
  -2.640        -15.220
  -2.637        -15.232
  -2.635        -15.244
  -2.633        -15.256
  -2.631        -15.268
  -2.629        -15.281
  -2.626        -15.293
  -2.624        -15.306
  -2.622        -15.318
  -2.620        -15.331
  -2.618        -15.344
  -2.616        -15.357
  -2.614        -15.370
  -2.611        -15.383
  -2.609        -15.397
  -2.607        -15.410
  -2.605        -15.423
  -2.603        -15.437
  -2.600        -15.451
  -2.598        -15.464
  -2.596        -15.478
  -2.594        -15.492
  -2.592        -15.506
  -2.590        -15.521
  -2.587        -15.535
  -2.585        -15.549
  -2.583        -15.564
  -2.581        -15.578
  -2.579        -15.593
  -2.577        -15.608
  -2.574        -15.623
  -2.572        -15.638
  -2.570        -15.653
  -2.568        -15.668
  -2.566        -15.683
  -2.564        -15.699
  -2.561        -15.714
  -2.559        -15.730
  -2.557        -15.746
  -2.555        -15.762
  -2.553        -15.778
  -2.551        -15.794
  -2.548        -15.810
  -2.546        -15.827
  -2.544        -15.843
  -2.542        -15.860
  -2.540        -15.876
  -2.538        -15.893
  -2.535        -15.910
  -2.533        -15.927
  -2.531        -15.944
  -2.529        -15.962
  -2.527        -15.979
  -2.525        -15.997
  -2.522        -16.014
  -2.520        -16.032
  -2.518        -16.050
  -2.516        -16.068
  -2.514        -16.086
  -2.511        -16.104
  -2.509        -16.123
  -2.507        -16.141
  -2.505        -16.160
  -2.503        -16.179
  -2.501        -16.198
  -2.498        -16.217
  -2.496        -16.236
  -2.494        -16.255
  -2.492        -16.274
  -2.490        -16.294
  -2.488        -16.314
  -2.485        -16.333
  -2.483        -16.353
  -2.481        -16.373
  -2.479        -16.394
  -2.477        -16.414
  -2.475        -16.434
  -2.472        -16.455
  -2.470        -16.476
  -2.468        -16.496
  -2.466        -16.518
  -2.464        -16.539
  -2.462        -16.560
  -2.459        -16.581
  -2.457        -16.603
  -2.455        -16.625
  -2.453        -16.646
  -2.451        -16.668
  -2.448        -16.691
  -2.446        -16.713
  -2.444        -16.735
  -2.442        -16.758
  -2.440        -16.780
  -2.438        -16.803
  -2.435        -16.826
  -2.433        -16.849
  -2.431        -16.873
  -2.429        -16.896
  -2.427        -16.920
  -2.425        -16.943
  -2.422        -16.967
  -2.420        -16.991
  -2.418        -17.016
  -2.416        -17.040
  -2.414        -17.065
  -2.412        -17.089
  -2.409        -17.114
  -2.407        -17.139
  -2.405        -17.164
  -2.403        -17.189
  -2.401        -17.215
  -2.398        -17.240
  -2.396        -17.266
  -2.394        -17.292
  -2.392        -17.318
  -2.390        -17.344
  -2.388        -17.371
  -2.386        -17.397
  -2.383        -17.424
  -2.381        -17.451
  -2.379        -17.478
  -2.377        -17.505
  -2.375        -17.532
  -2.372        -17.560
  -2.370        -17.588
  -2.368        -17.616
  -2.366        -17.644
  -2.364        -17.672
  -2.362        -17.700
  -2.359        -17.729
  -2.357        -17.758
  -2.355        -17.787
  -2.353        -17.816
  -2.351        -17.845
  -2.349        -17.874
  -2.346        -17.904
  -2.344        -17.934
  -2.342        -17.964
  -2.340        -17.994
  -2.338        -18.024
  -2.336        -18.054
  -2.333        -18.085
  -2.331        -18.116
  -2.329        -18.147
  -2.327        -18.178
  -2.325        -18.209
  -2.323        -18.240
  -2.320        -18.272
  -2.318        -18.304
  -2.316        -18.336
  -2.314        -18.368
  -2.312        -18.400
  -2.309        -18.432
  -2.307        -18.465
  -2.305        -18.497
  -2.303        -18.530
  -2.301        -18.563
  -2.299        -18.596
  -2.297        -18.629
  -2.294        -18.662
  -2.292        -18.696
  -2.290        -18.729
  -2.288        -18.763
  -2.286        -18.796
  -2.283        -18.830
  -2.281        -18.864
  -2.279        -18.897
  -2.277        -18.931
  -2.275        -18.965
  -2.273        -18.998
  -2.270        -19.032
  -2.268        -19.066
  -2.266        -19.099
  -2.264        -19.132
  -2.262        -19.166
  -2.260        -19.199
  -2.257        -19.231
  -2.255        -19.264
  -2.253        -19.296
  -2.251        -19.328
  -2.249        -19.359
  -2.247        -19.390
  -2.244        -19.421
  -2.242        -19.451
  -2.240        -19.480
  -2.238        -19.509
  -2.236        -19.536
  -2.234        -19.564
  -2.231        -19.590
  -2.229        -19.615
  -2.227        -19.640
  -2.225        -19.663
  -2.223        -19.686
  -2.220        -19.707
  -2.218        -19.728
  -2.216        -19.747
  -2.214        -19.765
  -2.212        -19.782
  -2.210        -19.798
  -2.207        -19.813
  -2.205        -19.826
  -2.203        -19.838
  -2.201        -19.850
  -2.199        -19.860
  -2.197        -19.869
  -2.194        -19.877
  -2.192        -19.884
  -2.190        -19.890
  -2.188        -19.896
  -2.186        -19.900
  -2.184        -19.904
  -2.181        -19.907
  -2.179        -19.909
  -2.177        -19.911
  -2.175        -19.912
  -2.173        -19.913
  -2.171        -19.913
  -2.168        -19.912
  -2.166        -19.912
  -2.164        -19.911
  -2.162        -19.909
  -2.160        -19.907
  -2.158        -19.905
  -2.155        -19.903
  -2.153        -19.901
  -2.151        -19.898
  -2.149        -19.895
  -2.147        -19.892
  -2.145        -19.889
  -2.142        -19.885
  -2.140        -19.882
  -2.138        -19.878
  -2.136        -19.875
  -2.134        -19.871
  -2.131        -19.867
  -2.129        -19.863
  -2.127        -19.860
  -2.125        -19.856
  -2.123        -19.852
  -2.121        -19.848
  -2.118        -19.843
  -2.116        -19.839
  -2.114        -19.835
  -2.112        -19.831
  -2.110        -19.827
  -2.108        -19.823
  -2.105        -19.818
  -2.103        -19.814
  -2.101        -19.810
  -2.099        -19.806
  -2.097        -19.801
  -2.095        -19.797
  -2.092        -19.793
  -2.090        -19.788
  -2.088        -19.784
  -2.086        -19.780
  -2.084        -19.775
  -2.082        -19.771
  -2.079        -19.767
  -2.077        -19.763
  -2.075        -19.758
  -2.073        -19.754
  -2.071        -19.750
  -2.069        -19.745
  -2.066        -19.741
  -2.064        -19.737
  -2.062        -19.732
  -2.060        -19.728
  -2.058        -19.724
  -2.056        -19.719
  -2.053        -19.715
  -2.051        -19.710
  -2.049        -19.706
  -2.047        -19.702
  -2.045        -19.698
  -2.043        -19.693
  -2.040        -19.689
  -2.038        -19.684
  -2.036        -19.680
  -2.034        -19.676
  -2.032        -19.671
  -2.029        -19.667
  -2.027        -19.663
  -2.025        -19.658
  -2.023        -19.654
  -2.021        -19.650
  -2.019        -19.645
  -2.016        -19.641
  -2.014        -19.637
  -2.012        -19.632
  -2.010        -19.628
  -2.008        -19.624
  -2.006        -19.619
  -2.003        -19.615
  -2.001        -19.611
  -1.999        -19.606
  -1.997        -19.602
  -1.995        -19.598
  -1.993        -19.593
  -1.990        -19.589
  -1.988        -19.587
  -1.986        -19.587
  -1.984        -19.588
  -1.982        -19.589
  -1.980        -19.590
  -1.977        -19.591
  -1.975        -19.592
  -1.973        -19.592
  -1.971        -19.593
  -1.969        -19.594
  -1.967        -19.595
  -1.964        -19.596
  -1.962        -19.597
  -1.960        -19.598
  -1.958        -19.599
  -1.956        -19.599
  -1.953        -19.600
  -1.951        -19.601
  -1.949        -19.602
  -1.947        -19.603
  -1.945        -19.604
  -1.943        -19.605
  -1.940        -19.605
  -1.938        -19.606
  -1.936        -19.607
  -1.934        -19.608
  -1.932        -19.609
  -1.930        -19.610
  -1.927        -19.610
  -1.925        -19.611
  -1.923        -19.612
  -1.921        -19.613
  -1.919        -19.614
  -1.917        -19.615
  -1.914        -19.616
  -1.912        -19.616
  -1.910        -19.617
  -1.908        -19.618
  -1.906        -19.619
  -1.904        -19.620
  -1.901        -19.621
  -1.899        -19.622
  -1.897        -19.622
  -1.895        -19.623
  -1.893        -19.624
  -1.891        -19.625
  -1.888        -19.626
  -1.886        -19.627
  -1.884        -19.628
  -1.882        -19.629
  -1.880        -19.629
  -1.877        -19.630
  -1.875        -19.631
  -1.873        -19.632
  -1.871        -19.633
  -1.869        -19.634
  -1.867        -19.635
  -1.864        -19.635
  -1.862        -19.636
  -1.860        -19.637
  -1.858        -19.638
  -1.856        -19.639
  -1.853        -19.640
  -1.851        -19.640
  -1.849        -19.641
  -1.847        -19.642
  -1.845        -19.643
  -1.843        -19.644
  -1.841        -19.645
  -1.838        -19.646
  -1.836        -19.647
  -1.834        -19.647
  -1.832        -19.648
  -1.830        -19.649
  -1.828        -19.650
  -1.825        -19.651
  -1.823        -19.652
  -1.821        -19.652
  -1.819        -19.653
  -1.817        -19.654
  -1.815        -19.655
  -1.812        -19.656
  -1.810        -19.657
  -1.808        -19.658
  -1.806        -19.659
  -1.804        -19.659
  -1.801        -19.660
  -1.799        -19.661
  -1.797        -19.662
  -1.795        -19.663
  -1.793        -19.663
  -1.791        -19.664
  -1.788        -19.665
  -1.786        -19.666
  -1.784        -19.667
  -1.782        -19.668
  -1.780        -19.669
  -1.777        -19.669
  -1.775        -19.670
  -1.773        -19.671
  -1.771        -19.672
  -1.769        -19.673
  -1.767        -19.674
  -1.764        -19.674
  -1.763        -19.675
  -1.760        -19.676
  -1.758        -19.677
  -1.756        -19.678
  -1.754        -19.679
  -1.752        -19.680
  -1.749        -19.681
  -1.747        -19.681
  -1.745        -19.682
  -1.743        -19.683
  -1.741        -19.684
  -1.739        -19.685
  -1.736        -19.686
  -1.734        -19.687
  -1.732        -19.687
  -1.730        -19.688
  -1.728        -19.689
  -1.726        -19.690
  -1.723        -19.691
  -1.721        -19.692
  -1.719        -19.692
  -1.717        -19.693
  -1.715        -19.694
  -1.713        -19.695
  -1.710        -19.696
  -1.708        -19.697
  -1.706        -19.698
  -1.704        -19.698
  -1.702        -19.699
  -1.699        -19.700
  -1.697        -19.701
  -1.695        -19.702
  -1.693        -19.703
  -1.691        -19.703
  -1.689        -19.705
  -1.686        -19.705
  -1.684        -19.706
  -1.682        -19.707
  -1.680        -19.708
  -1.678        -19.709
  -1.675        -19.710
  -1.673        -19.711
  -1.671        -19.711
  -1.669        -19.712
  -1.667        -19.713
  -1.665        -19.714
  -1.663        -19.715
  -1.660        -19.716
  -1.658        -19.717
  -1.656        -19.717
  -1.654        -19.718
  -1.652        -19.719
  -1.650        -19.720
  -1.647        -19.721
  -1.645        -19.721
  -1.643        -19.723
  -1.641        -19.724
  -1.639        -19.725
  -1.637        -19.725
  -1.634        -19.726
  -1.632        -19.727
  -1.630        -19.728
  -1.628        -19.729
  -1.626        -19.729
  -1.623        -19.731
  -1.621        -19.731
  -1.619        -19.732
  -1.617        -19.733
  -1.615        -19.734
  -1.613        -19.735
  -1.611        -19.736
  -1.608        -19.737
  -1.606        -19.738
  -1.604        -19.739
  -1.602        -19.739
  -1.600        -19.740
  -1.597        -19.741
  -1.595        -19.742
  -1.593        -19.743
  -1.591        -19.744
  -1.589        -19.745
  -1.587        -19.746
  -1.584        -19.747
  -1.582        -19.748
  -1.580        -19.748
  -1.578        -19.749
  -1.576        -19.750
  -1.573        -19.751
  -1.571        -19.752
  -1.569        -19.753
  -1.567        -19.754
  -1.565        -19.755
  -1.563        -19.756
  -1.561        -19.757
  -1.558        -19.758
  -1.556        -19.759
  -1.554        -19.760
  -1.552        -19.761
  -1.550        -19.762
  -1.547        -19.763
  -1.545        -19.763
  -1.543        -19.764
  -1.541        -19.765
  -1.539        -19.766
  -1.537        -19.767
  -1.534        -19.768
  -1.532        -19.769
  -1.530        -19.770
  -1.528        -19.771
  -1.526        -19.772
  -1.524        -19.773
  -1.522        -19.774
  -1.519        -19.775
  -1.517        -19.776
  -1.515        -19.777
  -1.513        -19.778
  -1.511        -19.779
  -1.508        -19.780
  -1.506        -19.781
  -1.504        -19.782
  -1.502        -19.783
  -1.500        -19.784
  -1.498        -19.785
  -1.495        -19.786
  -1.493        -19.787
  -1.491        -19.788
  -1.489        -19.789
  -1.487        -19.790
  -1.484        -19.792
  -1.482        -19.792
  -1.480        -19.793
  -1.478        -19.795
  -1.476        -19.796
  -1.474        -19.797
  -1.472        -19.798
  -1.469        -19.799
  -1.467        -19.800
  -1.465        -19.801
  -1.463        -19.802
  -1.461        -19.803
  -1.458        -19.805
  -1.456        -19.806
  -1.454        -19.807
  -1.452        -19.808
  -1.450        -19.809
  -1.448        -19.810
  -1.445        -19.811
  -1.443        -19.813
  -1.441        -19.814
  -1.439        -19.815
  -1.437        -19.816
  -1.435        -19.817
  -1.432        -19.819
  -1.430        -19.820
  -1.428        -19.821
  -1.426        -19.822
  -1.424        -19.823
  -1.422        -19.825
  -1.419        -19.826
  -1.417        -19.827
  -1.415        -19.828
  -1.413        -19.830
  -1.411        -19.831
  -1.409        -19.832
  -1.406        -19.833
  -1.404        -19.834
  -1.402        -19.836
  -1.400        -19.837
  -1.398        -19.839
  -1.396        -19.840
  -1.393        -19.841
  -1.391        -19.843
  -1.389        -19.844
  -1.387        -19.845
  -1.385        -19.846
  -1.383        -19.848
  -1.380        -19.849
  -1.378        -19.850
  -1.376        -19.852
  -1.374        -19.853
  -1.372        -19.855
  -1.370        -19.856
  -1.367        -19.857
  -1.365        -19.859
  -1.363        -19.860
  -1.361        -19.862
  -1.359        -19.863
  -1.356        -19.865
  -1.354        -19.866
  -1.352        -19.868
  -1.350        -19.869
  -1.348        -19.871
  -1.346        -19.872
  -1.343        -19.874
  -1.341        -19.875
  -1.339        -19.876
  -1.337        -19.878
  -1.335        -19.880
  -1.333        -19.881
  -1.330        -19.883
  -1.328        -19.884
  -1.326        -19.885
  -1.324        -19.887
  -1.322        -19.889
  -1.320        -19.890
  -1.317        -19.892
  -1.315        -19.893
  -1.313        -19.895
  -1.311        -19.896
  -1.309        -19.898
  -1.307        -19.900
  -1.304        -19.901
  -1.302        -19.903
  -1.300        -19.905
  -1.298        -19.906
  -1.296        -19.908
  -1.293        -19.909
  -1.291        -19.911
  -1.289        -19.913
  -1.287        -19.914
  -1.285        -19.916
  -1.283        -19.917
  -1.280        -19.919
  -1.278        -19.921
  -1.276        -19.922
  -1.274        -19.924
  -1.272        -19.926
  -1.270        -19.928
  -1.267        -19.929
  -1.265        -19.931
  -1.263        -19.932
  -1.261        -19.934
  -1.259        -19.936
  -1.257        -19.937
  -1.254        -19.939
  -1.252        -19.941
  -1.250        -19.943
  -1.248        -19.944
  -1.246        -19.946
  -1.243        -19.948
  -1.241        -19.949
  -1.239        -19.951
  -1.237        -19.953
  -1.235        -19.954
  -1.233        -19.956
  -1.231        -19.957
  -1.228        -19.959
  -1.226        -19.961
  -1.224        -19.962
  -1.222        -19.964
  -1.220        -19.965
  -1.217        -19.967
  -1.215        -19.969
  -1.213        -19.970
  -1.211        -19.972
  -1.209        -19.974
  -1.207        -19.975
  -1.204        -19.977
  -1.202        -19.978
  -1.200        -19.980
  -1.198        -19.982
  -1.196        -19.983
  -1.194        -19.985
  -1.191        -19.987
  -1.189        -19.988
  -1.187        -19.990
  -1.185        -19.991
  -1.183        -19.993
  -1.181        -19.994
  -1.178        -19.996
  -1.176        -19.997
  -1.174        -19.999
  -1.172        -20.001
  -1.170        -20.002
  -1.168        -20.003
  -1.165        -20.005
  -1.163        -20.006
  -1.161        -20.008
  -1.159        -20.010
  -1.157        -20.011
  -1.155        -20.013
  -1.152        -20.014
  -1.150        -20.015
  -1.148        -20.017
  -1.146        -20.018
  -1.144        -20.020
  -1.142        -20.021
  -1.139        -20.023
  -1.137        -20.024
  -1.135        -20.025
  -1.133        -20.027
  -1.131        -20.028
  -1.129        -20.029
  -1.126        -20.031
  -1.124        -20.032
  -1.122        -20.034
  -1.120        -20.035
  -1.118        -20.036
  -1.115        -20.038
  -1.113        -20.039
  -1.111        -20.040
  -1.109        -20.041
  -1.107        -20.043
  -1.105        -20.044
  -1.102        -20.045
  -1.100        -20.046
  -1.098        -20.048
  -1.096        -20.049
  -1.094        -20.050
  -1.092        -20.051
  -1.089        -20.052
  -1.087        -20.053
  -1.085        -20.055
  -1.083        -20.056
  -1.081        -20.057
  -1.079        -20.058
  -1.076        -20.059
  -1.074        -20.060
  -1.072        -20.061
  -1.070        -20.062
  -1.068        -20.063
  -1.066        -20.064
  -1.063        -20.065
  -1.061        -20.066
  -1.059        -20.067
  -1.057        -20.068
  -1.055        -20.069
  -1.052        -20.070
  -1.050        -20.071
  -1.048        -20.072
  -1.046        -20.073
  -1.044        -20.074
  -1.042        -20.075
  -1.039        -20.076
  -1.037        -20.077
  -1.035        -20.078
  -1.033        -20.078
  -1.031        -20.079
  -1.029        -20.080
  -1.026        -20.081
  -1.024        -20.082
  -1.022        -20.083
  -1.020        -20.083
  -1.018        -20.084
  -1.016        -20.085
  -1.013        -20.086
  -1.011        -20.087
  -1.009        -20.087
  -1.007        -20.088
  -1.005        -20.088
  -1.003        -20.089
  -1.000        -20.090
  -0.998        -20.090
  -0.996        -20.091
  -0.994        -20.092
  -0.992        -20.092
  -0.990        -20.093
  -0.987        -20.094
  -0.985        -20.094
  -0.983        -20.094
  -0.981        -20.095
  -0.979        -20.095
  -0.977        -20.096
  -0.974        -20.096
  -0.972        -20.097
  -0.970        -20.097
  -0.968        -20.098
  -0.966        -20.098
  -0.963        -20.099
  -0.961        -20.099
  -0.959        -20.099
  -0.957        -20.100
  -0.955        -20.100
  -0.953        -20.100
  -0.950        -20.101
  -0.948        -20.101
  -0.946        -20.101
  -0.944        -20.101
  -0.942        -20.102
  -0.940        -20.102
  -0.937        -20.102
  -0.935        -20.102
  -0.933        -20.102
  -0.931        -20.102
  -0.929        -20.103
  -0.927        -20.103
  -0.924        -20.103
  -0.922        -20.103
  -0.920        -20.103
  -0.918        -20.103
  -0.916        -20.103
  -0.914        -20.103
  -0.911        -20.103
  -0.909        -20.103
  -0.907        -20.103
  -0.905        -20.103
  -0.903        -20.103
  -0.900        -20.103
  -0.898        -20.103
  -0.896        -20.102
  -0.894        -20.102
  -0.892        -20.102
  -0.890        -20.102
  -0.887        -20.102
  -0.885        -20.102
  -0.883        -20.102
  -0.881        -20.102
  -0.879        -20.101
  -0.877        -20.101
  -0.874        -20.101
  -0.872        -20.100
  -0.870        -20.100
  -0.868        -20.100
  -0.866        -20.100
  -0.864        -20.099
  -0.862        -20.099
  -0.859        -20.099
  -0.857        -20.098
  -0.855        -20.098
  -0.853        -20.098
  -0.851        -20.097
  -0.848        -20.097
  -0.846        -20.096
  -0.844        -20.096
  -0.842        -20.095
  -0.840        -20.095
  -0.838        -20.094
  -0.835        -20.094
  -0.833        -20.093
  -0.831        -20.093
  -0.829        -20.093
  -0.827        -20.092
  -0.825        -20.091
  -0.822        -20.091
  -0.820        -20.090
  -0.818        -20.090
  -0.816        -20.089
  -0.814        -20.088
  -0.812        -20.088
  -0.809        -20.087
  -0.807        -20.086
  -0.805        -20.086
  -0.803        -20.085
  -0.801        -20.085
  -0.799        -20.084
  -0.796        -20.083
  -0.794        -20.083
  -0.792        -20.082
  -0.790        -20.081
  -0.788        -20.080
  -0.785        -20.080
  -0.783        -20.079
  -0.781        -20.078
  -0.779        -20.078
  -0.777        -20.077
  -0.774        -20.076
  -0.772        -20.075
  -0.770        -20.074
  -0.768        -20.073
  -0.766        -20.073
  -0.764        -20.072
  -0.762        -20.071
  -0.759        -20.070
  -0.757        -20.069
  -0.755        -20.068
  -0.753        -20.068
  -0.751        -20.067
  -0.748        -20.066
  -0.746        -20.065
  -0.744        -20.064
  -0.742        -20.063
  -0.740        -20.062
  -0.738        -20.061
  -0.736        -20.060
  -0.733        -20.059
  -0.731        -20.059
  -0.729        -20.058
  -0.727        -20.057
  -0.725        -20.056
  -0.723        -20.055
  -0.720        -20.054
  -0.718        -20.053
  -0.716        -20.052
  -0.714        -20.051
  -0.712        -20.050
  -0.709        -20.049
  -0.707        -20.048
  -0.705        -20.047
  -0.703        -20.046
  -0.701        -20.045
  -0.699        -20.044
  -0.697        -20.042
  -0.694        -20.041
  -0.692        -20.040
  -0.690        -20.039
  -0.688        -20.038
  -0.685        -20.037
  -0.683        -20.036
  -0.681        -20.035
  -0.679        -20.034
  -0.677        -20.033
  -0.675        -20.032
  -0.673        -20.031
  -0.670        -20.030
  -0.668        -20.028
  -0.666        -20.027
  -0.664        -20.026
  -0.662        -20.025
  -0.659        -20.024
  -0.657        -20.023
  -0.655        -20.022
  -0.653        -20.021
  -0.651        -20.020
  -0.649        -20.018
  -0.647        -20.017
  -0.644        -20.016
  -0.642        -20.015
  -0.640        -20.014
  -0.638        -20.013
  -0.636        -20.012
  -0.633        -20.010
  -0.631        -20.009
  -0.629        -20.008
  -0.627        -20.007
  -0.625        -20.006
  -0.623        -20.004
  -0.621        -20.003
  -0.618        -20.002
  -0.616        -20.001
  -0.614        -20.000
  -0.612        -19.999
  -0.610        -19.997
  -0.608        -19.996
  -0.605        -19.995
  -0.603        -19.994
  -0.601        -19.993
  -0.599        -19.992
  -0.596        -19.991
  -0.594        -19.989
  -0.592        -19.988
  -0.590        -19.987
  -0.588        -19.986
  -0.586        -19.985
  -0.584        -19.983
  -0.581        -19.982
  -0.579        -19.981
  -0.577        -19.980
  -0.575        -19.979
  -0.573        -19.978
  -0.571        -19.976
  -0.568        -19.975
  -0.566        -19.974
  -0.564        -19.973
  -0.562        -19.972
  -0.560        -19.971
  -0.557        -19.969
  -0.555        -19.968
  -0.553        -19.967
  -0.551        -19.966
  -0.549        -19.965
  -0.547        -19.964
  -0.544        -19.963
  -0.542        -19.962
  -0.540        -19.960
  -0.538        -19.959
  -0.536        -19.958
  -0.534        -19.957
  -0.531        -19.956
  -0.529        -19.955
  -0.527        -19.954
  -0.525        -19.953
  -0.523        -19.952
  -0.521        -19.951
  -0.518        -19.950
  -0.516        -19.949
  -0.514        -19.947
  -0.512        -19.946
  -0.510        -19.945
  -0.507        -19.944
  -0.505        -19.943
  -0.503        -19.942
  -0.501        -19.941
  -0.499        -19.940
  -0.497        -19.939
  -0.495        -19.938
  -0.492        -19.937
  -0.490        -19.936
  -0.488        -19.935
  -0.486        -19.934
  -0.484        -19.933
  -0.482        -19.932
  -0.479        -19.931
  -0.477        -19.930
  -0.475        -19.929
  -0.473        -19.928
  -0.471        -19.927
  -0.468        -19.926
  -0.466        -19.925
  -0.464        -19.924
  -0.462        -19.923
  -0.460        -19.922
  -0.458        -19.922
  -0.455        -19.921
  -0.453        -19.920
  -0.451        -19.919
  -0.449        -19.918
  -0.447        -19.917
  -0.445        -19.916
  -0.442        -19.915
  -0.440        -19.915
  -0.438        -19.914
  -0.436        -19.913
  -0.434        -19.912
  -0.432        -19.912
  -0.429        -19.911
  -0.427        -19.910
  -0.425        -19.909
  -0.423        -19.909
  -0.421        -19.908
  -0.419        -19.907
  -0.416        -19.906
  -0.414        -19.906
  -0.412        -19.905
  -0.410        -19.904
  -0.408        -19.904
  -0.405        -19.903
  -0.403        -19.902
  -0.401        -19.902
  -0.399        -19.901
  -0.397        -19.900
  -0.395        -19.900
  -0.392        -19.899
  -0.390        -19.898
  -0.388        -19.898
  -0.386        -19.897
  -0.384        -19.897
  -0.382        -19.896
  -0.379        -19.895
  -0.377        -19.895
  -0.375        -19.894
  -0.373        -19.894
  -0.371        -19.893
  -0.369        -19.893
  -0.366        -19.892
  -0.364        -19.892
  -0.362        -19.891
  -0.360        -19.890
  -0.358        -19.890
  -0.356        -19.890
  -0.353        -19.889
  -0.351        -19.888
  -0.349        -19.888
  -0.347        -19.888
  -0.345        -19.887
  -0.343        -19.886
  -0.340        -19.886
  -0.338        -19.886
  -0.336        -19.885
  -0.334        -19.885
  -0.332        -19.884
  -0.330        -19.884
  -0.327        -19.883
  -0.325        -19.883
  -0.323        -19.882
  -0.321        -19.882
  -0.319        -19.882
  -0.316        -19.881
  -0.314        -19.881
  -0.312        -19.880
  -0.310        -19.880
  -0.308        -19.880
  -0.306        -19.880
  -0.303        -19.879
  -0.301        -19.879
  -0.299        -19.879
  -0.297        -19.878
  -0.295        -19.878
  -0.293        -19.878
  -0.290        -19.878
  -0.288        -19.878
  -0.286        -19.877
  -0.284        -19.877
  -0.282        -19.877
  -0.280        -19.877
  -0.277        -19.877
  -0.275        -19.877
  -0.273        -19.876
  -0.271        -19.876
  -0.269        -19.876
  -0.267        -19.876
  -0.264        -19.876
  -0.262        -19.876
  -0.260        -19.876
  -0.258        -19.876
  -0.256        -19.876
  -0.253        -19.876
  -0.251        -19.875
  -0.249        -19.876
  -0.247        -19.875
  -0.245        -19.875
  -0.243        -19.875
  -0.241        -19.875
  -0.238        -19.875
  -0.236        -19.875
  -0.234        -19.875
  -0.232        -19.875
  -0.230        -19.876
  -0.227        -19.876
  -0.225        -19.876
  -0.223        -19.876
  -0.221        -19.876
  -0.219        -19.876
  -0.217        -19.876
  -0.214        -19.876
  -0.212        -19.876
  -0.210        -19.876
  -0.208        -19.876
  -0.206        -19.876
  -0.204        -19.876
  -0.201        -19.877
  -0.199        -19.877
  -0.197        -19.877
  -0.195        -19.877
  -0.193        -19.877
  -0.191        -19.877
  -0.188        -19.877
  -0.186        -19.878
  -0.184        -19.878
  -0.182        -19.878
  -0.180        -19.878
  -0.178        -19.878
  -0.175        -19.879
  -0.173        -19.879
  -0.171        -19.879
  -0.169        -19.879
  -0.167        -19.880
  -0.164        -19.880
  -0.162        -19.880
  -0.160        -19.881
  -0.158        -19.881
  -0.156        -19.881
  -0.154        -19.881
  -0.151        -19.882
  -0.149        -19.882
  -0.147        -19.882
  -0.145        -19.883
  -0.143        -19.883
  -0.141        -19.883
  -0.138        -19.883
  -0.136        -19.884
  -0.134        -19.884
  -0.132        -19.884
  -0.130        -19.885
  -0.128        -19.885
  -0.125        -19.885
  -0.123        -19.886
  -0.121        -19.886
  -0.119        -19.886
  -0.117        -19.887
  -0.115        -19.887
  -0.112        -19.887
  -0.110        -19.888
  -0.108        -19.888
  -0.106        -19.888
  -0.104        -19.889
  -0.102        -19.889
  -0.099        -19.889
  -0.097        -19.889
  -0.095        -19.890
  -0.093        -19.890
  -0.091        -19.890
  -0.089        -19.891
  -0.086        -19.891
  -0.084        -19.891
  -0.082        -19.891
  -0.080        -19.892
  -0.078        -19.892
  -0.075        -19.892
  -0.073        -19.892
  -0.071        -19.893
  -0.069        -19.893
  -0.067        -19.893
  -0.065        -19.894
  -0.063        -19.894
  -0.060        -19.894
  -0.058        -19.894
  -0.056        -19.895
  -0.054        -19.895
  -0.052        -19.895
  -0.049        -19.896
  -0.047        -19.896
  -0.045        -19.896
  -0.043        -19.897
  -0.041        -19.897
  -0.039        -19.897
  -0.036        -19.898
  -0.034        -19.898
  -0.032        -19.898
  -0.030        -19.899
  -0.028        -19.899
  -0.026        -19.899
  -0.023        -19.900
  -0.021        -19.900
  -0.019        -19.900
  -0.017        -19.901
  -0.015        -19.901
  -0.013        -19.901
  -0.010        -19.902
  -0.008        -19.902
  -0.006        -19.902
  -0.004        -19.903
  -0.002        -19.903
   0.000        -19.903
   0.003        -19.904
   0.005        -19.904
   0.007        -19.904
   0.009        -19.905
   0.011        -19.905
   0.013        -19.905
   0.016        -19.906
   0.018        -19.906
   0.020        -19.907
   0.022        -19.907
   0.024        -19.907
   0.027        -19.908
   0.029        -19.908
   0.031        -19.908
   0.033        -19.909
   0.035        -19.909
   0.037        -19.910
   0.040        -19.910
   0.042        -19.911
   0.044        -19.911
   0.046        -19.911
   0.048        -19.912
   0.050        -19.912
   0.053        -19.913
   0.055        -19.913
   0.057        -19.914
   0.059        -19.914
   0.061        -19.915
   0.063        -19.915
   0.066        -19.916
   0.068        -19.916
   0.070        -19.917
   0.072        -19.917
   0.074        -19.917
   0.076        -19.918
   0.079        -19.918
   0.081        -19.919
   0.083        -19.919
   0.085        -19.919
   0.087        -19.920
   0.089        -19.920
   0.092        -19.921
   0.094        -19.921
   0.096        -19.922
   0.098        -19.922
   0.100        -19.923
   0.103        -19.923
   0.105        -19.923
   0.107        -19.924
   0.109        -19.924
   0.111        -19.925
   0.113        -19.926
   0.116        -19.926
   0.118        -19.927
   0.120        -19.927
   0.122        -19.928
   0.124        -19.928
   0.126        -19.929
   0.128        -19.929
   0.131        -19.929
   0.133        -19.930
   0.135        -19.931
   0.137        -19.931
   0.139        -19.932
   0.142        -19.933
   0.144        -19.933
   0.146        -19.933
   0.148        -19.934
   0.150        -19.935
   0.153        -19.935
   0.155        -19.936
   0.157        -19.937
   0.159        -19.937
   0.161        -19.938
   0.163        -19.939
   0.165        -19.940
   0.168        -19.940
   0.170        -19.941
   0.172        -19.942
   0.174        -19.943
   0.176        -19.943
   0.178        -19.944
   0.181        -19.945
   0.183        -19.946
   0.185        -19.946
   0.187        -19.947
   0.189        -19.948
   0.192        -19.949
   0.194        -19.950
   0.196        -19.950
   0.198        -19.951
   0.200        -19.952
   0.202        -19.953
   0.205        -19.954
   0.207        -19.955
   0.209        -19.955
   0.211        -19.957
   0.213        -19.957
   0.215        -19.958
   0.218        -19.959
   0.220        -19.960
   0.222        -19.961
   0.224        -19.962
   0.226        -19.963
   0.229        -19.964
   0.231        -19.964
   0.233        -19.965
   0.235        -19.966
   0.237        -19.967
   0.239        -19.968
   0.241        -19.969
   0.244        -19.970
   0.246        -19.971
   0.248        -19.972
   0.250        -19.973
   0.252        -19.974
   0.254        -19.975
   0.257        -19.976
   0.259        -19.977
   0.261        -19.978
   0.263        -19.979
   0.265        -19.980
   0.267        -19.981
   0.270        -19.981
   0.272        -19.983
   0.274        -19.984
   0.276        -19.985
   0.278        -19.986
   0.281        -19.987
   0.283        -19.988
   0.285        -19.989
   0.287        -19.990
   0.289        -19.991
   0.291        -19.992
   0.293        -19.993
   0.296        -19.994
   0.298        -19.995
   0.300        -19.996
   0.302        -19.997
   0.305        -19.998
   0.307        -19.999
   0.309        -20.000
   0.311        -20.001
   0.313        -20.002
   0.315        -20.003
   0.318        -20.004
   0.320        -20.006
   0.322        -20.007
   0.324        -20.008
   0.326        -20.009
   0.328        -20.010
   0.330        -20.011
   0.333        -20.012
   0.335        -20.013
   0.337        -20.014
   0.339        -20.015
   0.341        -20.016
   0.344        -20.017
   0.346        -20.018
   0.348        -20.020
   0.350        -20.020
   0.352        -20.022
   0.354        -20.023
   0.356        -20.024
   0.359        -20.025
   0.361        -20.026
   0.363        -20.027
   0.365        -20.028
   0.367        -20.029
   0.369        -20.030
   0.372        -20.031
   0.374        -20.032
   0.376        -20.033
   0.378        -20.034
   0.380        -20.035
   0.383        -20.036
   0.385        -20.038
   0.387        -20.039
   0.389        -20.040
   0.391        -20.041
   0.393        -20.042
   0.396        -20.043
   0.398        -20.044
   0.400        -20.045
   0.402        -20.046
   0.404        -20.047
   0.406        -20.048
   0.409        -20.050
   0.411        -20.051
   0.413        -20.052
   0.415        -20.053
   0.417        -20.054
   0.420        -20.055
   0.422        -20.057
   0.424        -20.058
   0.426        -20.059
   0.428        -20.060
   0.430        -20.061
   0.432        -20.062
   0.435        -20.063
   0.437        -20.065
   0.439        -20.066
   0.441        -20.067
   0.443        -20.068
   0.446        -20.069
   0.448        -20.071
   0.450        -20.072
   0.452        -20.073
   0.454        -20.074
   0.456        -20.075
   0.459        -20.077
   0.461        -20.078
   0.463        -20.079
   0.465        -20.080
   0.467        -20.082
   0.469        -20.083
   0.472        -20.084
   0.474        -20.085
   0.476        -20.086
   0.478        -20.087
   0.480        -20.089
   0.482        -20.090
   0.485        -20.091
   0.487        -20.092
   0.489        -20.093
   0.491        -20.094
   0.493        -20.095
   0.495        -20.095
   0.498        -20.096
   0.500        -20.097
   0.502        -20.098
   0.504        -20.098
   0.506        -20.099
   0.510        -20.100
   0.512        -20.101
   0.513        -20.101
   0.515        -20.102
   0.517        -20.102
   0.519        -20.103
   0.522        -20.103
   0.524        -20.104
   0.526        -20.104
   0.528        -20.105
   0.530        -20.106
   0.532        -20.106
   0.535        -20.107
   0.537        -20.107
   0.539        -20.108
   0.541        -20.109
   0.543        -20.109
   0.545        -20.110
   0.548        -20.111
   0.550        -20.111
   0.552        -20.112
   0.554        -20.113
   0.556        -20.114
   0.558        -20.114
   0.561        -20.115
   0.563        -20.116
   0.565        -20.117
   0.567        -20.117
   0.569        -20.118
   0.572        -20.119
   0.574        -20.120
   0.576        -20.120
   0.578        -20.121
   0.580        -20.122
   0.582        -20.123
   0.585        -20.124
   0.587        -20.125
   0.589        -20.126
   0.591        -20.127
   0.593        -20.128
   0.595        -20.129
   0.598        -20.130
   0.600        -20.131
   0.602        -20.132
   0.604        -20.133
   0.606        -20.134
   0.608        -20.135
   0.611        -20.136
   0.613        -20.137
   0.615        -20.138
   0.617        -20.139
   0.619        -20.140
   0.621        -20.141
   0.624        -20.142
   0.626        -20.144
   0.628        -20.145
   0.630        -20.146
   0.632        -20.147
   0.634        -20.148
   0.637        -20.150
   0.639        -20.151
   0.641        -20.152
   0.643        -20.153
   0.645        -20.155
   0.647        -20.156
   0.650        -20.157
   0.652        -20.159
   0.654        -20.160
   0.656        -20.161
   0.658        -20.163
   0.660        -20.164
   0.663        -20.166
   0.665        -20.167
   0.667        -20.169
   0.669        -20.170
   0.671        -20.172
   0.673        -20.173
   0.676        -20.175
   0.678        -20.177
   0.680        -20.178
   0.682        -20.180
   0.684        -20.182
   0.687        -20.183
   0.689        -20.185
   0.691        -20.187
   0.693        -20.188
   0.695        -20.190
   0.697        -20.192
   0.700        -20.194
   0.702        -20.196
   0.704        -20.198
   0.706        -20.200
   0.708        -20.202
   0.710        -20.204
   0.713        -20.206
   0.715        -20.208
   0.717        -20.210
   0.719        -20.212
   0.721        -20.214
   0.723        -20.217
   0.726        -20.219
   0.728        -20.221
   0.730        -20.223
   0.732        -20.226
   0.734        -20.228
   0.736        -20.230
   0.739        -20.233
   0.741        -20.235
   0.743        -20.238
   0.745        -20.240
   0.747        -20.243
   0.750        -20.246
   0.752        -20.248
   0.754        -20.251
   0.756        -20.253
   0.758        -20.256
   0.760        -20.258
   0.762        -20.261
   0.765        -20.264
   0.767        -20.267
   0.769        -20.270
   0.771        -20.273
   0.773        -20.276
   0.776        -20.279
   0.778        -20.281
   0.780        -20.284
   0.782        -20.287
   0.784        -20.291
   0.786        -20.294
   0.789        -20.297
   0.791        -20.301
   0.793        -20.304
   0.795        -20.307
   0.797        -20.311
   0.799        -20.314
   0.802        -20.317
   0.804        -20.321
   0.806        -20.325
   0.808        -20.329
   0.810        -20.332
   0.812        -20.336
   0.815        -20.340
   0.817        -20.344
   0.819        -20.347
   0.821        -20.351
   0.823        -20.355
   0.825        -20.359
   0.828        -20.364
   0.830        -20.368
   0.832        -20.372
   0.834        -20.376
   0.836        -20.380
   0.838        -20.384
   0.841        -20.388
   0.843        -20.393
   0.845        -20.397
   0.847        -20.402
   0.849        -20.406
   0.852        -20.411
   0.854        -20.415
   0.856        -20.420
   0.858        -20.425
   0.860        -20.429
   0.862        -20.434
   0.865        -20.438
   0.867        -20.444
   0.869        -20.448
   0.871        -20.453
   0.873        -20.458
   0.875        -20.463
   0.878        -20.468
   0.880        -20.473
   0.882        -20.478
   0.884        -20.483
   0.886        -20.489
   0.888        -20.494
   0.891        -20.500
   0.893        -20.506
   0.895        -20.511
   0.897        -20.517
   0.899        -20.523
   0.901        -20.528
   0.904        -20.534
   0.906        -20.540
   0.908        -20.546
   0.910        -20.553
   0.912        -20.559
   0.915        -20.565
   0.917        -20.572
   0.919        -20.578
   0.921        -20.584
   0.923        -20.591
   0.925        -20.597
   0.928        -20.604
   0.930        -20.611
   0.932        -20.618
   0.934        -20.626
   0.936        -20.633
   0.938        -20.640
   0.941        -20.647
   0.943        -20.654
   0.945        -20.662
   0.947        -20.669
   0.949        -20.677
   0.951        -20.686
   0.954        -20.695
   0.956        -20.704
   0.958        -20.712
   0.960        -20.721
   0.962        -20.730
   0.964        -20.738
   0.967        -20.747
   0.969        -20.756
   0.971        -20.764
   0.973        -20.772
   0.975        -20.780
   0.977        -20.788
   0.980        -20.796
   0.982        -20.804
   0.984        -20.812
   0.986        -20.820
   0.988        -20.829
   0.990        -20.838
   0.993        -20.847
   0.995        -20.855
   0.997        -20.864
   0.999        -20.873
   1.001        -20.882
   1.004        -20.891
   1.006        -20.900
   1.008        -20.909
   1.010        -20.919
   1.012        -20.932
   1.014        -20.946
   1.017        -20.959
   1.019        -20.973
   1.021        -20.986
   1.023        -21.000
   1.025        -21.013
   1.027        -21.027
   1.030        -21.041
   1.032        -21.057
   1.034        -21.075
   1.036        -21.093
   1.038        -21.111
   1.040        -21.129
   1.043        -21.146
   1.045        -21.164
   1.047        -21.182
   1.049        -21.200
   1.051        -21.219
   1.053        -21.244
   1.056        -21.271
   1.058        -21.297
   1.060        -21.323
   1.062        -21.349
   1.064        -21.375
   1.066        -21.401
   1.069        -21.427
   1.071        -21.453
   1.073        -21.489
   1.075        -21.533
   1.077        -21.578
   1.079        -21.622
   1.082        -21.667
   1.084        -21.711
   1.086        -21.756
   1.088        -21.800
   1.090        -21.845
   1.093        -21.888
   1.095        -21.916
   1.097        -21.941
   1.099        -21.966
   1.101        -21.990
   1.103        -22.015
   1.106        -22.040
   1.108        -22.064
   1.110        -22.089
   1.112        -22.117
   1.114        -22.133
   1.117        -22.135
   1.119        -22.139
   1.121        -22.142
   1.123        -22.145
   1.125        -22.148
   1.127        -22.151
   1.129        -22.154
   1.131        -22.157
   1.134        -22.160
   1.136        -22.163
   1.138        -22.166
   1.140        -22.170
   1.143        -22.172
   1.145        -22.175
   1.147        -22.179
   1.149        -22.182
   1.151        -22.184
   1.153        -22.188
   1.155        -22.191
   1.158        -22.194
   1.160        -22.197
   1.162        -22.200
   1.164        -22.204
   1.166        -22.207
   1.169        -22.210
   1.171        -22.213
   1.173        -22.216
   1.175        -22.220
   1.177        -22.223
   1.180        -22.227
   1.181        -22.230
   1.184        -22.233
   1.186        -22.237
   1.188        -22.240
   1.190        -22.244
   1.192        -22.247
   1.195        -22.251
   1.197        -22.254
   1.199        -22.258
   1.201        -22.261
   1.203        -22.265
   1.205        -22.268
   1.208        -22.272
   1.210        -22.276
   1.212        -22.279
   1.214        -22.283
   1.216        -22.287
   1.218        -22.291
   1.220        -22.294
   1.223        -22.298
   1.225        -22.302
   1.227        -22.306
   1.229        -22.310
   1.232        -22.314
   1.234        -22.318
   1.236        -22.321
   1.238        -22.326
   1.240        -22.330
   1.242        -22.334
   1.245        -22.338
   1.247        -22.342
   1.249        -22.346
   1.251        -22.350
   1.253        -22.354
   1.255        -22.358
   1.258        -22.362
   1.260        -22.367
   1.262        -22.371
   1.264        -22.375
   1.266        -22.380
   1.268        -22.384
   1.270        -22.389
   1.273        -22.393
   1.275        -22.398
   1.277        -22.402
   1.279        -22.406
   1.281        -22.411
   1.284        -22.416
   1.286        -22.420
   1.288        -22.425
   1.290        -22.429
   1.292        -22.434
   1.294        -22.439
   1.297        -22.443
   1.299        -22.448
   1.301        -22.453
   1.303        -22.458
   1.305        -22.463
   1.307        -22.468
   1.310        -22.473
   1.312        -22.478
   1.314        -22.483
   1.316        -22.488
   1.318        -22.493
   1.320        -22.498
   1.323        -22.503
   1.325        -22.508
   1.327        -22.514
   1.329        -22.519
   1.331        -22.524
   1.334        -22.529
   1.336        -22.534
   1.338        -22.540
   1.340        -22.545
   1.342        -22.550
   1.344        -22.556
   1.346        -22.561
   1.349        -22.567
   1.351        -22.573
   1.353        -22.578
   1.355        -22.584
   1.357        -22.589
   1.359        -22.595
   1.362        -22.601
   1.364        -22.606
   1.366        -22.612
   1.368        -22.618
   1.370        -22.624
   1.373        -22.629
   1.375        -22.635
   1.377        -22.641
   1.379        -22.646
   1.381        -22.652
   1.383        -22.658
   1.386        -22.663
   1.388        -22.669
   1.390        -22.675
   1.392        -22.680
   1.394        -22.686
   1.397        -22.692
   1.399        -22.697
   1.401        -22.703
   1.403        -22.709
   1.405        -22.714
   1.407        -22.720
   1.410        -22.727
   1.412        -22.733
   1.414        -22.739
   1.416        -22.745
   1.418        -22.751
   1.420        -22.757
   1.423        -22.763
   1.425        -22.769
   1.427        -22.776
   1.429        -22.782
   1.431        -22.789
   1.433        -22.796
   1.436        -22.802
   1.438        -22.809
   1.440        -22.815
   1.442        -22.822
   1.444        -22.828
   1.446        -22.835
   1.449        -22.842
   1.451        -22.849
   1.453        -22.856
   1.455        -22.863
   1.457        -22.870
   1.460        -22.876
   1.462        -22.883
   1.464        -22.890
   1.466        -22.897
   1.468        -22.904
   1.470        -22.912
   1.472        -22.919
   1.475        -22.926
   1.477        -22.934
   1.479        -22.941
   1.481        -22.948
   1.483        -22.956
   1.486        -22.963
   1.488        -22.970
   1.490        -22.978
   1.492        -22.986
   1.494        -22.993
   1.496        -23.001
   1.498        -23.009
   1.501        -23.016
   1.503        -23.024
   1.505        -23.032
   1.507        -23.039
   1.509        -23.047
   1.512        -23.055
   1.514        -23.063
   1.516        -23.071
   1.518        -23.079
   1.520        -23.086
   1.522        -23.094
   1.525        -23.102
   1.527        -23.110
   1.529        -23.118
   1.531        -23.126
   1.533        -23.134
   1.535        -23.142
   1.538        -23.150
   1.540        -23.159
   1.542        -23.167
   1.544        -23.175
   1.546        -23.183
   1.549        -23.191
   1.551        -23.199
   1.553        -23.207
   1.555        -23.216
   1.557        -23.224
   1.559        -23.232
   1.561        -23.241
   1.564        -23.249
   1.566        -23.257
   1.568        -23.266
   1.570        -23.274
   1.572        -23.283
   1.575        -23.292
   1.577        -23.301
   1.579        -23.311
   1.581        -23.320
   1.583        -23.329
   1.585        -23.338
   1.588        -23.347
   1.590        -23.379
   1.592        -23.432
   1.594        -23.442
   1.596        -23.451
   1.598        -23.460
   1.601        -23.469
   1.603        -23.479
   1.605        -23.488
   1.607        -23.497
   1.609        -23.506
   1.611        -23.516
   1.614        -23.526
   1.616        -23.535
   1.618        -23.545
   1.620        -23.555
   1.622        -23.564
   1.624        -23.574
   1.627        -23.584
   1.629        -23.594
   1.631        -23.604
   1.633        -23.613
   1.635        -23.623
   1.637        -23.633
   1.640        -23.643
   1.642        -23.653
   1.644        -23.663
   1.646        -23.673
   1.648        -23.683
   1.651        -23.693
   1.653        -23.703
   1.655        -23.713
   1.657        -23.723
   1.659        -23.733
   1.661        -23.743
   1.664        -23.754
   1.666        -23.764
   1.668        -23.774
   1.670        -23.784
   1.672        -23.794
   1.674        -23.804
   1.676        -23.814
   1.679        -23.825
   1.681        -23.835
   1.683        -23.845
   1.685        -23.855
   1.687        -23.865
   1.690        -23.876
   1.692        -23.886
   1.694        -23.896
   1.696        -23.907
   1.699        -23.920
   1.701        -23.932
   1.703        -23.943
   1.705        -23.953
   1.707        -23.965
   1.709        -23.977
   1.711        -23.988
   1.714        -24.001
   1.716        -24.008
   1.718        -24.023
   1.720        -24.039
   1.722        -24.058
   1.724        -24.076
   1.727        -24.095
   1.729        -24.114
   1.731        -24.133
   1.733        -24.152
   1.735        -24.170
   1.737        -24.185
   1.739        -24.194
   1.742        -24.202
   1.744        -24.210
   1.746        -24.219
   1.748        -24.227
   1.750        -24.235
   1.753        -24.244
   1.755        -24.252
   1.757        -24.260
   1.759        -24.264
   1.761        -24.267
   1.763        -24.270
   1.766        -24.273
   1.768        -24.276
   1.770        -24.279
   1.772        -24.282
   1.774        -24.285
   1.776        -24.288
   1.779        -24.290
   1.781        -24.291
   1.783        -24.292
   1.785        -24.293
   1.787        -24.294
   1.789        -24.295
   1.792        -24.296
   1.794        -24.297
   1.796        -24.298
   1.798        -24.299
   1.800        -24.300
   1.802        -24.300
   1.805        -24.301
   1.807        -24.301
   1.809        -24.302
   1.811        -24.302
   1.813        -24.302
   1.816        -24.303
   1.818        -24.303
   1.820        -24.304
   1.822        -24.304
   1.824        -24.304
   1.826        -24.305
   1.829        -24.305
   1.831        -24.305
   1.833        -24.305
   1.835        -24.306
   1.837        -24.306
   1.839        -24.306
   1.842        -24.306
   1.844        -24.307
   1.846        -24.307
   1.848        -24.307
   1.850        -24.308
   1.852        -24.308
   1.855        -24.308
   1.857        -24.308
   1.859        -24.309
   1.861        -24.309
   1.863        -24.309
   1.865        -24.309
   1.868        -24.310
   1.870        -24.310
   1.872        -24.310
   1.874        -24.311
   1.876        -24.311
   1.878        -24.311
   1.881        -24.311
   1.883        -24.312
   1.885        -24.312
   1.887        -24.313
   1.889        -24.313
   1.891        -24.313
   1.894        -24.313
   1.896        -24.314
   1.898        -24.314
   1.900        -24.314
   1.902        -24.315
   1.905        -24.315
   1.907        -24.315
   1.909        -24.316
   1.911        -24.316
   1.913        -24.316
   1.915        -24.316
   1.918        -24.317
   1.920        -24.317
   1.922        -24.317
   1.924        -24.318
   1.926        -24.318
   1.928        -24.318
   1.931        -24.319
   1.933        -24.319
   1.935        -24.319
   1.937        -24.320
   1.939        -24.320
   1.941        -24.320
   1.944        -24.321
   1.946        -24.321
   1.948        -24.321
   1.950        -24.322
   1.952        -24.322
   1.954        -24.322
   1.957        -24.323
   1.959        -24.323
   1.961        -24.323
   1.963        -24.324
   1.965        -24.324
   1.967        -24.324
   1.970        -24.325
   1.972        -24.325
   1.974        -24.325
   1.976        -24.325
   1.978        -24.326
   1.980        -24.326
   1.983        -24.326
   1.985        -24.327
   1.987        -24.327
   1.989        -24.327
   1.991        -24.327
   1.993        -24.328
   1.996        -24.328
   1.998        -24.328
   2.000        -24.328
   2.002        -24.329
   2.004        -24.329
   2.007        -24.329
   2.009        -24.329
   2.011        -24.329
   2.013        -24.330
   2.015        -24.330
   2.017        -24.330
   2.020        -24.331
   2.022        -24.331
   2.024        -24.331
   2.026        -24.331
   2.028        -24.331
   2.030        -24.331
   2.033        -24.331
   2.035        -24.332
   2.037        -24.332
   2.039        -24.332
   2.041        -24.332
   2.043        -24.332
   2.046        -24.332
   2.048        -24.333
   2.050        -24.333
   2.052        -24.333
   2.054        -24.333
   2.056        -24.333
   2.059        -24.333
   2.061        -24.333
   2.063        -24.333
   2.065        -24.333
   2.067        -24.333
   2.069        -24.334
   2.072        -24.333
   2.074        -24.334
   2.076        -24.334
   2.078        -24.334
   2.080        -24.334
   2.083        -24.334
   2.085        -24.334
   2.087        -24.334
   2.089        -24.334
   2.091        -24.334
   2.093        -24.334
   2.096        -24.334
   2.098        -24.334
   2.100        -24.334
   2.102        -24.334
   2.104        -24.334
   2.106        -24.334
   2.109        -24.334
   2.111        -24.334
   2.113        -24.334
   2.115        -24.334
   2.117        -24.334
   2.120        -24.334
   2.122        -24.333
   2.124        -24.333
   2.126        -24.333
   2.128        -24.333
   2.130        -24.333
   2.133        -24.333
   2.135        -24.333
   2.137        -24.333
   2.139        -24.333
   2.141        -24.333
   2.143        -24.333
   2.145        -24.332
   2.148        -24.333
   2.150        -24.332
   2.152        -24.333
   2.154        -24.332
   2.157        -24.333
   2.158        -24.332
   2.161        -24.332
   2.163        -24.332
   2.165        -24.332
   2.167        -24.332
   2.169        -24.332
   2.172        -24.332
   2.174        -24.332
   2.176        -24.332
   2.178        -24.332
   2.180        -24.332
   2.183        -24.332
   2.185        -24.332
   2.187        -24.332
   2.189        -24.332
   2.191        -24.332
   2.193        -24.332
   2.195        -24.332
   2.197        -24.332
   2.200        -24.332
   2.202        -24.333
   2.204        -24.333
   2.206        -24.333
   2.208        -24.333
   2.211        -24.333
   2.213        -24.333
   2.215        -24.333
   2.217        -24.333
   2.219        -24.333
   2.221        -24.333
   2.224        -24.333
   2.226        -24.334
   2.228        -24.334
   2.230        -24.334
   2.232        -24.334
   2.235        -24.335
   2.237        -24.335
   2.239        -24.335
   2.241        -24.335
   2.243        -24.336
   2.245        -24.336
   2.247        -24.336
   2.250        -24.337
   2.252        -24.337
   2.254        -24.338
   2.256        -24.338
   2.259        -24.338
   2.261        -24.339
   2.263        -24.339
   2.265        -24.340
   2.267        -24.341
   2.269        -24.341
   2.271        -24.341
   2.274        -24.342
   2.276        -24.342
   2.278        -24.343
   2.280        -24.344
   2.282        -24.345
   2.284        -24.346
   2.287        -24.346
   2.289        -24.347
   2.291        -24.348
   2.293        -24.349
   2.295        -24.349
   2.297        -24.350
   2.299        -24.351
   2.302        -24.352
   2.304        -24.353
   2.306        -24.354
   2.308        -24.355
   2.310        -24.356
   2.313        -24.357
   2.315        -24.358
   2.317        -24.359
   2.319        -24.360
   2.321        -24.361
   2.323        -24.363
   2.326        -24.364
   2.328        -24.365
   2.330        -24.367
   2.332        -24.368
   2.334        -24.369
   2.337        -24.371
   2.339        -24.372
   2.341        -24.373
   2.343        -24.375
   2.345        -24.376
   2.347        -24.378
   2.349        -24.379
   2.352        -24.381
   2.354        -24.383
   2.356        -24.384
   2.358        -24.386
   2.360        -24.388
   2.363        -24.389
   2.365        -24.391
   2.367        -24.393
   2.369        -24.395
   2.371        -24.397
   2.374        -24.399
   2.376        -24.401
   2.378        -24.402
   2.380        -24.404
   2.382        -24.406
   2.384        -24.408
   2.386        -24.410
   2.389        -24.412
   2.391        -24.415
   2.393        -24.417
   2.395        -24.419
   2.397        -24.421
   2.400        -24.423
   2.402        -24.425
   2.404        -24.427
   2.406        -24.430
   2.408        -24.432
   2.410        -24.434
   2.413        -24.437
   2.415        -24.439
   2.417        -24.442
   2.419        -24.444
   2.421        -24.446
   2.423        -24.448
   2.425        -24.451
   2.428        -24.454
   2.430        -24.456
   2.432        -24.458
   2.434        -24.461
   2.436        -24.463
   2.439        -24.466
   2.441        -24.468
   2.443        -24.471
   2.445        -24.473
   2.447        -24.476
   2.449        -24.479
   2.452        -24.481
   2.454        -24.484
   2.456        -24.486
   2.458        -24.489
   2.460        -24.492
   2.462        -24.494
   2.465        -24.497
   2.467        -24.499
   2.469        -24.502
   2.471        -24.505
   2.473        -24.508
   2.475        -24.510
   2.478        -24.513
   2.480        -24.516
   2.482        -24.518
   2.484        -24.521
   2.486        -24.524
   2.489        -24.526
   2.491        -24.529
   2.493        -24.532
   2.495        -24.535
   2.497        -24.537
   2.499        -24.540
   2.502        -24.543
   2.504        -24.546
   2.506        -24.548
   2.508        -24.551
   2.510        -24.554
   2.512        -24.557
   2.514        -24.559
   2.517        -24.562
   2.519        -24.565
   2.521        -24.567
   2.523        -24.570
   2.525        -24.573
   2.528        -24.576
   2.530        -24.578
   2.532        -24.581
   2.534        -24.584
   2.536        -24.587
   2.538        -24.590
   2.541        -24.592
   2.543        -24.595
   2.545        -24.598
   2.547        -24.600
   2.549        -24.603
   2.552        -24.606
   2.554        -24.609
   2.556        -24.611
   2.558        -24.614
   2.560        -24.617
   2.562        -24.619
   2.565        -24.622
   2.567        -24.625
   2.569        -24.628
   2.571        -24.630
   2.573        -24.633
   2.575        -24.635
   2.578        -24.638
   2.580        -24.641
   2.582        -24.643
   2.584        -24.646
   2.586        -24.648
   2.588        -24.651
   2.590        -24.654
   2.593        -24.656
   2.595        -24.659
   2.597        -24.661
   2.599        -24.664
   2.601        -24.666
   2.604        -24.669
   2.606        -24.671
   2.608        -24.674
   2.610        -24.676
   2.612        -24.679
   2.614        -24.681
   2.617        -24.684
   2.619        -24.686
   2.621        -24.689
   2.623        -24.691
   2.625        -24.693
   2.627        -24.696
   2.630        -24.698
   2.632        -24.701
   2.634        -24.703
   2.636        -24.705
   2.638        -24.708
   2.641        -24.710
   2.643        -24.712
   2.645        -24.715
   2.647        -24.717
   2.649        -24.719
   2.651        -24.722
   2.654        -24.724
   2.656        -24.726
   2.658        -24.729
   2.660        -24.731
   2.662        -24.733
   2.664        -24.735
   2.666        -24.737
   2.669        -24.739
   2.671        -24.742
   2.673        -24.744
   2.675        -24.746
   2.677        -24.748
   2.680        -24.750
   2.682        -24.752
   2.684        -24.754
   2.686        -24.756
   2.688        -24.758
   2.690        -24.760
   2.693        -24.762
   2.695        -24.764
   2.697        -24.766
   2.699        -24.768
   2.701        -24.770
   2.703        -24.772
   2.706        -24.773
   2.708        -24.775
   2.710        -24.777
   2.712        -24.779
   2.714        -24.781
   2.716        -24.782
   2.719        -24.784
   2.721        -24.785
   2.723        -24.787
   2.725        -24.788
   2.727        -24.790
   2.729        -24.791
   2.732        -24.793
   2.734        -24.794
   2.736        -24.796
   2.738        -24.797
   2.740        -24.798
   2.743        -24.800
   2.745        -24.801
   2.747        -24.802
   2.749        -24.803
   2.751        -24.805
   2.753        -24.806
   2.756        -24.807
   2.758        -24.808
   2.760        -24.810
   2.762        -24.811
   2.764        -24.812
   2.766        -24.813
   2.769        -24.814
   2.771        -24.815
   2.773        -24.817
   2.775        -24.818
   2.777        -24.819
   2.779        -24.820
   2.782        -24.821
   2.784        -24.822
   2.786        -24.823
   2.788        -24.825
   2.790        -24.826
   2.792        -24.827
   2.795        -24.828
   2.797        -24.829
   2.799        -24.830
   2.801        -24.831
   2.803        -24.832
   2.805        -24.833
   2.808        -24.834
   2.810        -24.836
   2.812        -24.836
   2.814        -24.838
   2.816        -24.839
   2.819        -24.840
   2.821        -24.841
   2.823        -24.842
   2.825        -24.843
   2.827        -24.844
   2.829        -24.845
   2.832        -24.846
   2.834        -24.847
   2.836        -24.848
   2.838        -24.848
   2.840        -24.849
   2.842        -24.850
   2.845        -24.851
   2.847        -24.852
   2.849        -24.853
   2.851        -24.854
   2.853        -24.855
   2.855        -24.856
   2.858        -24.857
   2.860        -24.858
   2.862        -24.859
   2.864        -24.860
   2.866        -24.861
   2.868        -24.862
   2.871        -24.862
   2.873        -24.863
   2.875        -24.864
   2.877        -24.865
   2.879        -24.866
   2.881        -24.867
   2.884        -24.868
   2.886        -24.869
   2.888        -24.870
   2.890        -24.871
   2.892        -24.872
   2.894        -24.872
   2.897        -24.873
   2.899        -24.874
   2.901        -24.875
   2.903        -24.876
   2.905        -24.877
   2.908        -24.878
   2.910        -24.879
   2.912        -24.879
   2.914        -24.880
   2.916        -24.881
   2.918        -24.882
   2.921        -24.883
   2.923        -24.884
   2.925        -24.885
   2.927        -24.886
   2.929        -24.886
   2.931        -24.887
   2.934        -24.888
   2.936        -24.889
   2.938        -24.890
   2.940        -24.891
   2.942        -24.892
   2.944        -24.892
   2.947        -24.893
   2.949        -24.894
   2.951        -24.895
   2.953        -24.896
   2.955        -24.897
   2.957        -24.898
   2.960        -24.899
   2.962        -24.899
   2.964        -24.900
   2.966        -24.901
   2.968        -24.902
   2.970        -24.903
   2.973        -24.904
   2.975        -24.905
   2.977        -24.906
   2.979        -24.906
   2.981        -24.907
   2.984        -24.908
   2.986        -24.909
   2.988        -24.910
   2.990        -24.911
   2.992        -24.912
   2.994        -24.913
   2.997        -24.914
   2.999        -24.914
   3.001        -24.915
   3.003        -24.916
   3.005        -24.917
   3.007        -24.918
   3.010        -24.919
   3.012        -24.920
   3.014        -24.921
   3.016        -24.921
   3.018        -24.922
   3.020        -24.923
   3.023        -24.924
   3.025        -24.925
   3.027        -24.926
   3.029        -24.927
   3.031        -24.928
   3.033        -24.929
   3.036        -24.930
   3.038        -24.931
   3.040        -24.932
   3.042        -24.933
   3.044        -24.933
   3.046        -24.934
   3.049        -24.935
   3.051        -24.936
   3.053        -24.937
   3.055        -24.938
   3.057        -24.939
   3.060        -24.940
   3.062        -24.941
   3.064        -24.942
   3.066        -24.943
   3.068        -24.944
   3.070        -24.944
   3.073        -24.945
   3.075        -24.946
   3.077        -24.947
   3.079        -24.948
   3.081        -24.949
   3.083        -24.950
   3.086        -24.951
   3.088        -24.952
   3.090        -24.953
   3.092        -24.954
   3.094        -24.955
   3.096        -24.956
   3.099        -24.957
   3.101        -24.957
   3.103        -24.958
   3.105        -24.959
   3.107        -24.960
   3.109        -24.961
   3.112        -24.962
   3.114        -24.963
   3.116        -24.964
   3.118        -24.965
   3.120        -24.966
   3.123        -24.967
   3.125        -24.968
   3.127        -24.969
   3.129        -24.969
   3.131        -24.970
   3.133        -24.972
   3.136        -24.972
   3.138        -24.973
   3.140        -24.974
   3.142        -24.975
   3.144        -24.976
   3.146        -24.977
   3.149        -24.978
   3.151        -24.979
   3.153        -24.980
   3.155        -24.981
   3.157        -24.982
   3.159        -24.983
   3.162        -24.984
   3.164        -24.984
   3.166        -24.985
   3.168        -24.987
   3.170        -24.987
   3.172        -24.988
   3.175        -24.989
   3.177        -24.990
   3.179        -24.991
   3.181        -24.992
   3.183        -24.993
   3.185        -24.994
   3.188        -24.995
   3.190        -24.996
   3.192        -24.997
   3.194        -24.998
   3.196        -24.999
   3.199        -25.000
   3.201        -25.001
   3.203        -25.002
   3.205        -25.003
   3.207        -25.004
   3.209        -25.005
   3.212        -25.006
   3.214        -25.007
   3.216        -25.007
   3.218        -25.009
   3.220        -25.009
   3.222        -25.010
   3.225        -25.011
   3.227        -25.012
   3.229        -25.013
   3.231        -25.014
   3.233        -25.015
   3.236        -25.016
   3.237        -25.017
   3.240        -25.018
   3.242        -25.019
   3.244        -25.020
   3.246        -25.021
   3.248        -25.022
   3.251        -25.023
   3.253        -25.023
   3.255        -25.024
   3.257        -25.025
   3.259        -25.026
   3.261        -25.027
   3.263        -25.028
   3.266        -25.029
   3.268        -25.030
   3.270        -25.031
   3.272        -25.032
   3.274        -25.033
   3.277        -25.034
   3.279        -25.035
   3.281        -25.036
   3.283        -25.036
   3.285        -25.037
   3.287        -25.038
   3.290        -25.039
   3.292        -25.040
   3.294        -25.041
   3.296        -25.042
   3.298        -25.043
   3.301        -25.044
   3.303        -25.045
   3.305        -25.046
   3.307        -25.047
   3.309        -25.048
   3.311        -25.048
   3.313        -25.049
   3.316        -25.050
   3.318        -25.051
   3.320        -25.052
   3.322        -25.053
   3.324        -25.054
   3.327        -25.055
   3.329        -25.056
   3.331        -25.057
   3.333        -25.058
   3.335        -25.058
   3.337        -25.059
   3.340        -25.060
   3.342        -25.061
   3.344        -25.062
   3.346        -25.063
   3.348        -25.064
   3.350        -25.065
   3.352        -25.066
   3.355        -25.067
   3.357        -25.068
   3.359        -25.069
   3.361        -25.069
   3.363        -25.070
   3.366        -25.071
   3.368        -25.072
   3.370        -25.073
   3.372        -25.074
   3.374        -25.075
   3.376        -25.076
   3.379        -25.077
   3.381        -25.078
   3.383        -25.078
   3.385        -25.079
   3.387        -25.080
   3.389        -25.081
   3.392        -25.082
   3.394        -25.083
   3.396        -25.084
   3.398        -25.085
   3.400        -25.086
   3.402        -25.086
   3.405        -25.087
   3.407        -25.088
   3.409        -25.089
   3.411        -25.090
   3.413        -25.091
   3.416        -25.092
   3.418        -25.093
   3.420        -25.094
   3.422        -25.095
   3.424        -25.096
   3.426        -25.096
   3.429        -25.098
   3.431        -25.098
   3.433        -25.099
   3.435        -25.100
   3.437        -25.101
   3.439        -25.102
   3.442        -25.103
   3.444        -25.104
   3.446        -25.105
   3.448        -25.106
   3.450        -25.107
   3.452        -25.108
   3.455        -25.109
   3.457        -25.109
   3.459        -25.110
   3.461        -25.111
   3.463        -25.112
   3.466        -25.113
   3.468        -25.114
   3.470        -25.115
   3.472        -25.116
   3.474        -25.117
   3.476        -25.118
   3.478        -25.119
   3.481        -25.120
   3.483        -25.121
   3.485        -25.122
   3.487        -25.123
   3.489        -25.124
   3.492        -25.125
   3.494        -25.126
   3.496        -25.126
   3.498        -25.127
   3.500        -25.128
   3.502        -25.129
   3.505        -25.130
   3.507        -25.131
   3.509        -25.132
   3.511        -25.133
   3.513        -25.134
   3.515        -25.135
   3.518        -25.136
   3.520        -25.137
   3.522        -25.138
   3.524        -25.139
   3.526        -25.139
   3.528        -25.140
   3.531        -25.141
   3.533        -25.142
   3.535        -25.143
   3.537        -25.144
   3.539        -25.145
   3.541        -25.146
   3.544        -25.147
   3.546        -25.148
   3.548        -25.149
   3.550        -25.150
   3.552        -25.151
   3.555        -25.152
   3.557        -25.153
   3.559        -25.154
   3.561        -25.155
   3.563        -25.156
   3.565        -25.157
   3.568        -25.158
   3.570        -25.159
   3.572        -25.160
   3.574        -25.161
   3.576        -25.162
   3.578        -25.163
   3.581        -25.163
   3.583        -25.164
   3.585        -25.165
   3.587        -25.166
   3.589        -25.167
   3.591        -25.168
   3.594        -25.169
   3.596        -25.170
   3.598        -25.171
   3.600        -25.172
   3.602        -25.173
   3.604        -25.174
   3.607        -25.175
   3.609        -25.176
   3.611        -25.177
   3.613        -25.178
   3.615        -25.179
   3.617        -25.180
   3.620        -25.181
   3.622        -25.182
   3.624        -25.183
   3.626        -25.183
   3.628        -25.185
   3.630        -25.185
   3.633        -25.186
   3.635        -25.187
   3.637        -25.188
   3.639        -25.189
   3.641        -25.190
   3.644        -25.191
   3.646        -25.192
   3.648        -25.193
   3.650        -25.194
   3.652        -25.195
   3.654        -25.196
   3.657        -25.197
   3.659        -25.198
   3.661        -25.199
   3.663        -25.200
   3.665        -25.201
   3.667        -25.202
   3.670        -25.203
   3.672        -25.204
   3.674        -25.205
   3.676        -25.206
   3.678        -25.207
   3.680        -25.207
   3.683        -25.208
   3.685        -25.209
   3.687        -25.210
   3.689        -25.211
   3.691        -25.212
   3.693        -25.213
   3.696        -25.214
   3.698        -25.215
   3.700        -25.216
   3.702        -25.217
   3.704        -25.218
   3.706        -25.219
   3.709        -25.220
   3.711        -25.221
   3.713        -25.222
   3.715        -25.223
   3.717        -25.223
   3.719        -25.224
   3.722        -25.225
   3.724        -25.226
   3.726        -25.227
   3.728        -25.228
   3.730        -25.229
   3.733        -25.230
   3.735        -25.231
   3.737        -25.232
   3.739        -25.233
   3.741        -25.234
   3.743        -25.235
   3.746        -25.236
   3.748        -25.236
   3.750        -25.237
   3.752        -25.238
   3.754        -25.239
   3.756        -25.240
   3.759        -25.241
   3.761        -25.242
   3.763        -25.243
   3.765        -25.244
   3.767        -25.245
   3.769        -25.246
   3.772        -25.246
   3.774        -25.247
   3.776        -25.248
   3.778        -25.249
   3.780        -25.250
   3.782        -25.251
   3.785        -25.252
   3.787        -25.252
   3.789        -25.253
   3.791        -25.254
   3.793        -25.255
   3.795        -25.256
   3.798        -25.257
   3.800        -25.258
   3.802        -25.259
   3.804        -25.259
   3.806        -25.260
   3.809        -25.261
   3.811        -25.262
   3.813        -25.263
   3.815        -25.264
   3.817        -25.264
   3.819        -25.265
   3.822        -25.266
   3.824        -25.267
   3.826        -25.268
   3.828        -25.269
   3.830        -25.269
   3.832        -25.270
   3.835        -25.271
   3.837        -25.272
   3.839        -25.273
   3.841        -25.273
   3.843        -25.274
   3.845        -25.275
   3.848        -25.276
   3.850        -25.276
   3.852        -25.277
   3.854        -25.278
   3.856        -25.278
   3.858        -25.279
   3.861        -25.280
   3.863        -25.281
   3.865        -25.281
   3.867        -25.282
   3.869        -25.282
   3.871        -25.283
   3.874        -25.284
   3.876        -25.284
   3.878        -25.285
   3.880        -25.286
   3.882        -25.286
   3.885        -25.287
   3.887        -25.288
   3.889        -25.289
   3.891        -25.289
   3.899        -25.291
   3.912        -25.295
   3.925        -25.300
   3.938        -25.304
   3.951        -25.308
   3.964        -25.313
   3.977        -25.317
   3.990        -25.322
   4.003        -25.327
   4.016        -25.332
   4.029        -25.337
   4.042        -25.342
   4.055        -25.348
   4.068        -25.354
   4.081        -25.359
   4.094        -25.365
   4.107        -25.372
   4.120        -25.379
   4.133        -25.386
   4.146        -25.393
   4.159        -25.400
   4.172        -25.408
   4.185        -25.416
   4.198        -25.424
   4.211        -25.433
   4.224        -25.442
   4.237        -25.451
   4.250        -25.460
   4.263        -25.470
   4.276        -25.481
   4.289        -25.491
   4.302        -25.502
   4.315        -25.513
   4.328        -25.524
   4.341        -25.536
   4.354        -25.548
   4.367        -25.560
   4.380        -25.573
   4.393        -25.586
   4.406        -25.599
   4.420        -25.612
   4.432        -25.625
   4.445        -25.639
   4.459        -25.653
   4.471        -25.667
   4.484        -25.681
   4.498        -25.696
   4.510        -25.711
   4.524        -25.725
   4.537        -25.740
   4.550        -25.755
   4.563        -25.771
   4.576        -25.786
   4.589        -25.802
   4.602        -25.817
   4.615        -25.833
   4.628        -25.849
   4.641        -25.866
   4.654        -25.882
   4.667        -25.898
   4.680        -25.915
   4.693        -25.932
   4.706        -25.949
   4.719        -25.966
   4.732        -25.983
   4.745        -26.000
   4.758        -26.018
   4.771        -26.035
   4.784        -26.053
   4.797        -26.070
   4.810        -26.088
   4.823        -26.107
   4.836        -26.125
   4.849        -26.143
   4.862        -26.162
   4.875        -26.180
   4.888        -26.199
   4.901        -26.218
   4.914        -26.237
   4.927        -26.256
   4.940        -26.275
   4.953        -26.294
   4.966        -26.314
   4.979        -26.334
   4.992        -26.353
   5.005        -26.373
   5.018        -26.392
   5.031        -26.412
   5.044        -26.433
   5.057        -26.453
   5.070        -26.473
   5.083        -26.493
   5.096        -26.514
   5.109        -26.534
   5.123        -26.555
   5.136        -26.576
   5.149        -26.597
   5.162        -26.618
   5.175        -26.639
   5.188        -26.660
   5.201        -26.682
   5.214        -26.703
   5.227        -26.724
   5.240        -26.746
   5.253        -26.768
   5.266        -26.790
   5.279        -26.813
   5.292        -26.835
   5.305        -26.857
   5.318        -26.880
   5.331        -26.903
   5.344        -26.927
   5.357        -26.950
   5.370        -26.974
   5.383        -26.998
   5.396        -27.022
   5.409        -27.047
   5.422        -27.072
   5.435        -27.097
   5.448        -27.122
   5.461        -27.148
   5.474        -27.174
   5.487        -27.200
   5.500        -27.227
   5.513        -27.254
   5.526        -27.282
   5.539        -27.310
   5.552        -27.338
   5.565        -27.367
   5.578        -27.396
   5.591        -27.426
   5.604        -27.456
   5.617        -27.486
   5.630        -27.517
   5.643        -27.549
   5.656        -27.581
   5.669        -27.613
   5.682        -27.646
   5.695        -27.679
   5.708        -27.713
   5.721        -27.748
   5.734        -27.783
   5.748        -27.819
   5.761        -27.855
   5.774        -27.892
   5.787        -27.929
   5.800        -27.968
   5.813        -28.006
   5.826        -28.046
   5.839        -28.086
   5.852        -28.127
   5.865        -28.169
   5.878        -28.212
   5.891        -28.255
   5.904        -28.299
   5.917        -28.344
   5.930        -28.390
   5.943        -28.436
   5.956        -28.484
   5.969        -28.532
   5.982        -28.581
   5.995        -28.632
   6.008        -28.683
   6.021        -28.736
   6.034        -28.788
   6.047        -28.842
   6.060        -28.898
   6.073        -28.955
   6.086        -29.013
   6.099        -29.072
   6.112        -29.132
   6.125        -29.193
   6.138        -29.256
   6.151        -29.319
   6.164        -29.385
   6.177        -29.451
   6.190        -29.519
   6.203        -29.589
   6.216        -29.660
   6.229        -29.733
   6.242        -29.807
   6.255        -29.882
   6.268        -29.960
   6.281        -30.039
   6.294        -30.120
   6.307        -30.202
   6.320        -30.286
   6.334        -30.373
   6.346        -30.462
   6.359        -30.552
   6.372        -30.644
   6.386        -30.739
   6.399        -30.836
   6.411        -30.935
   6.425        -31.036
   6.438        -31.140
   6.451        -31.246
   6.464        -31.354
   6.477        -31.465
   6.490        -31.579
   6.503        -31.696
   6.516        -31.816
   6.529        -31.938
   6.542        -32.064
   6.555        -32.192
   6.568        -32.323
   6.581        -32.458
   6.594        -32.597
   6.607        -32.740
   6.620        -32.886
   6.633        -33.033
   6.646        -33.184
   6.659        -33.341
   6.672        -33.503
   6.685        -33.667
   6.698        -33.836
   6.711        -34.010
   6.724        -34.190
   6.737        -34.373
   6.750        -34.559
   6.763        -34.757
   6.776        -34.963
   6.789        -35.170
   6.802        -35.383
   6.815        -35.605
   6.828        -35.857
   6.841        -36.133
   6.854        -36.455
   6.867        -37.117
   6.880        -38.217
