# log Energy    log Jnu
# (eV)          (ergs/s/cm2/Hz/Sr)
  -6.864        -20.244
  -6.820        -20.158
  -6.777        -20.071
  -6.734        -19.984
  -6.690        -19.897
  -6.647        -19.810
  -6.603        -19.723
  -6.560        -19.637
  -6.516        -19.550
  -6.473        -19.463
  -6.430        -19.376
  -6.386        -19.289
  -6.343        -19.202
  -6.299        -19.115
  -6.256        -19.029
  -6.212        -18.942
  -6.169        -18.855
  -6.126        -18.768
  -6.082        -18.681
  -6.039        -18.594
  -5.995        -18.508
  -5.952        -18.421
  -5.908        -18.334
  -5.865        -18.247
  -5.822        -18.160
  -5.778        -18.073
  -5.735        -17.987
  -5.691        -17.900
  -5.648        -17.813
  -5.605        -17.726
  -5.561        -17.639
  -5.518        -17.552
  -5.474        -17.466
  -5.431        -17.379
  -5.387        -17.292
  -5.344        -17.205
  -5.300        -17.118
  -5.257        -17.032
  -5.214        -16.945
  -5.170        -16.858
  -5.127        -16.772
  -5.083        -16.685
  -5.040        -16.598
  -4.996        -16.511
  -4.953        -16.425
  -4.910        -16.338
  -4.866        -16.252
  -4.823        -16.165
  -4.779        -16.078
  -4.736        -15.992
  -4.692        -15.905
  -4.649        -15.819
  -4.606        -15.732
  -4.562        -15.646
  -4.519        -15.560
  -4.475        -15.473
  -4.432        -15.387
  -4.388        -15.301
  -4.345        -15.215
  -4.302        -15.129
  -4.258        -15.043
  -4.215        -14.957
  -4.171        -14.872
  -4.128        -14.786
  -4.084        -14.701
  -4.041        -14.615
  -3.998        -14.530
  -3.954        -14.445
  -3.911        -14.361
  -3.867        -14.276
  -3.824        -14.192
  -3.781        -14.108
  -3.737        -14.024
  -3.693        -13.941
  -3.650        -13.858
  -3.607        -13.776
  -3.584        -13.737
  -3.582        -13.727
  -3.580        -13.725
  -3.577        -13.722
  -3.575        -13.718
  -3.573        -13.713
  -3.571        -13.709
  -3.569        -13.705
  -3.567        -13.701
  -3.564        -13.697
  -3.562        -13.693
  -3.560        -13.689
  -3.558        -13.685
  -3.556        -13.681
  -3.554        -13.677
  -3.551        -13.673
  -3.549        -13.668
  -3.547        -13.665
  -3.545        -13.660
  -3.543        -13.656
  -3.540        -13.652
  -3.538        -13.648
  -3.536        -13.644
  -3.534        -13.640
  -3.532        -13.636
  -3.530        -13.632
  -3.528        -13.628
  -3.525        -13.624
  -3.523        -13.620
  -3.521        -13.616
  -3.519        -13.611
  -3.517        -13.608
  -3.514        -13.603
  -3.512        -13.599
  -3.510        -13.595
  -3.508        -13.591
  -3.506        -13.587
  -3.504        -13.583
  -3.502        -13.579
  -3.499        -13.575
  -3.497        -13.571
  -3.495        -13.567
  -3.493        -13.563
  -3.491        -13.559
  -3.488        -13.555
  -3.486        -13.551
  -3.484        -13.547
  -3.482        -13.543
  -3.480        -13.539
  -3.477        -13.535
  -3.475        -13.531
  -3.473        -13.527
  -3.471        -13.523
  -3.469        -13.518
  -3.467        -13.515
  -3.464        -13.511
  -3.462        -13.507
  -3.460        -13.503
  -3.458        -13.498
  -3.456        -13.494
  -3.454        -13.490
  -3.451        -13.486
  -3.449        -13.483
  -3.447        -13.478
  -3.445        -13.474
  -3.443        -13.470
  -3.441        -13.467
  -3.438        -13.463
  -3.436        -13.458
  -3.434        -13.454
  -3.432        -13.450
  -3.430        -13.446
  -3.428        -13.443
  -3.425        -13.438
  -3.423        -13.435
  -3.421        -13.431
  -3.419        -13.427
  -3.417        -13.422
  -3.415        -13.419
  -3.412        -13.415
  -3.410        -13.411
  -3.408        -13.407
  -3.406        -13.403
  -3.404        -13.399
  -3.402        -13.395
  -3.399        -13.391
  -3.397        -13.387
  -3.395        -13.383
  -3.393        -13.379
  -3.391        -13.375
  -3.389        -13.371
  -3.386        -13.367
  -3.384        -13.363
  -3.382        -13.359
  -3.380        -13.355
  -3.378        -13.351
  -3.376        -13.347
  -3.373        -13.343
  -3.371        -13.339
  -3.369        -13.335
  -3.367        -13.331
  -3.365        -13.328
  -3.362        -13.324
  -3.360        -13.320
  -3.358        -13.316
  -3.356        -13.312
  -3.354        -13.308
  -3.352        -13.304
  -3.349        -13.300
  -3.347        -13.296
  -3.345        -13.292
  -3.343        -13.288
  -3.341        -13.284
  -3.339        -13.281
  -3.336        -13.277
  -3.334        -13.273
  -3.332        -13.269
  -3.330        -13.265
  -3.328        -13.261
  -3.326        -13.257
  -3.323        -13.253
  -3.321        -13.249
  -3.319        -13.245
  -3.317        -13.242
  -3.315        -13.238
  -3.313        -13.234
  -3.310        -13.230
  -3.308        -13.226
  -3.306        -13.222
  -3.304        -13.218
  -3.302        -13.214
  -3.300        -13.211
  -3.297        -13.207
  -3.295        -13.203
  -3.293        -13.199
  -3.291        -13.195
  -3.289        -13.191
  -3.287        -13.188
  -3.284        -13.184
  -3.282        -13.180
  -3.280        -13.176
  -3.278        -13.172
  -3.276        -13.168
  -3.273        -13.165
  -3.271        -13.161
  -3.269        -13.157
  -3.267        -13.153
  -3.265        -13.149
  -3.263        -13.145
  -3.260        -13.142
  -3.258        -13.138
  -3.256        -13.134
  -3.254        -13.130
  -3.252        -13.126
  -3.250        -13.123
  -3.247        -13.119
  -3.245        -13.115
  -3.243        -13.111
  -3.241        -13.107
  -3.239        -13.103
  -3.237        -13.100
  -3.234        -13.096
  -3.232        -13.092
  -3.230        -13.089
  -3.228        -13.085
  -3.226        -13.081
  -3.224        -13.077
  -3.221        -13.073
  -3.219        -13.070
  -3.217        -13.066
  -3.215        -13.062
  -3.213        -13.058
  -3.211        -13.055
  -3.208        -13.051
  -3.206        -13.047
  -3.204        -13.043
  -3.202        -13.040
  -3.200        -13.036
  -3.197        -13.032
  -3.195        -13.028
  -3.193        -13.025
  -3.191        -13.021
  -3.189        -13.017
  -3.187        -13.014
  -3.184        -13.010
  -3.182        -13.006
  -3.180        -13.003
  -3.178        -12.999
  -3.176        -12.995
  -3.174        -12.991
  -3.171        -12.988
  -3.169        -12.984
  -3.167        -12.980
  -3.165        -12.977
  -3.163        -12.973
  -3.161        -12.969
  -3.158        -12.966
  -3.156        -12.962
  -3.154        -12.958
  -3.152        -12.955
  -3.150        -12.951
  -3.148        -12.948
  -3.145        -12.944
  -3.143        -12.940
  -3.141        -12.937
  -3.139        -12.933
  -3.137        -12.929
  -3.135        -12.926
  -3.132        -12.922
  -3.130        -12.918
  -3.128        -12.915
  -3.126        -12.911
  -3.124        -12.908
  -3.122        -12.904
  -3.119        -12.900
  -3.117        -12.897
  -3.115        -12.893
  -3.113        -12.890
  -3.111        -12.886
  -3.108        -12.883
  -3.106        -12.879
  -3.104        -12.875
  -3.102        -12.872
  -3.100        -12.868
  -3.098        -12.865
  -3.095        -12.861
  -3.093        -12.858
  -3.091        -12.854
  -3.089        -12.851
  -3.087        -12.847
  -3.085        -12.844
  -3.082        -12.840
  -3.080        -12.837
  -3.078        -12.833
  -3.076        -12.830
  -3.074        -12.826
  -3.072        -12.823
  -3.069        -12.819
  -3.067        -12.816
  -3.065        -12.812
  -3.063        -12.809
  -3.061        -12.805
  -3.059        -12.802
  -3.056        -12.798
  -3.054        -12.795
  -3.052        -12.791
  -3.050        -12.788
  -3.048        -12.784
  -3.046        -12.781
  -3.043        -12.778
  -3.041        -12.774
  -3.039        -12.771
  -3.037        -12.767
  -3.035        -12.764
  -3.032        -12.760
  -3.030        -12.757
  -3.028        -12.754
  -3.026        -12.750
  -3.024        -12.747
  -3.022        -12.743
  -3.019        -12.740
  -3.017        -12.737
  -3.015        -12.733
  -3.013        -12.730
  -3.011        -12.727
  -3.009        -12.723
  -3.006        -12.720
  -3.004        -12.717
  -3.002        -12.713
  -3.000        -12.710
  -2.998        -12.707
  -2.996        -12.703
  -2.993        -12.700
  -2.991        -12.697
  -2.989        -12.693
  -2.987        -12.690
  -2.985        -12.687
  -2.983        -12.683
  -2.980        -12.680
  -2.978        -12.677
  -2.976        -12.674
  -2.974        -12.670
  -2.972        -12.667
  -2.970        -12.664
  -2.967        -12.661
  -2.965        -12.657
  -2.963        -12.654
  -2.961        -12.651
  -2.959        -12.648
  -2.956        -12.645
  -2.954        -12.641
  -2.952        -12.638
  -2.950        -12.635
  -2.948        -12.632
  -2.946        -12.629
  -2.944        -12.625
  -2.941        -12.622
  -2.939        -12.619
  -2.937        -12.616
  -2.935        -12.613
  -2.933        -12.610
  -2.930        -12.607
  -2.928        -12.604
  -2.926        -12.600
  -2.924        -12.597
  -2.922        -12.594
  -2.920        -12.591
  -2.917        -12.588
  -2.915        -12.585
  -2.913        -12.582
  -2.911        -12.579
  -2.909        -12.576
  -2.907        -12.573
  -2.904        -12.570
  -2.902        -12.567
  -2.900        -12.564
  -2.898        -12.561
  -2.896        -12.558
  -2.894        -12.554
  -2.891        -12.551
  -2.889        -12.549
  -2.887        -12.546
  -2.885        -12.543
  -2.883        -12.540
  -2.880        -12.537
  -2.878        -12.534
  -2.876        -12.531
  -2.874        -12.528
  -2.872        -12.525
  -2.870        -12.522
  -2.867        -12.519
  -2.865        -12.516
  -2.863        -12.513
  -2.861        -12.510
  -2.859        -12.508
  -2.857        -12.505
  -2.855        -12.502
  -2.852        -12.499
  -2.850        -12.496
  -2.848        -12.493
  -2.846        -12.490
  -2.843        -12.488
  -2.842        -12.485
  -2.839        -12.482
  -2.837        -12.479
  -2.835        -12.477
  -2.833        -12.474
  -2.831        -12.471
  -2.828        -12.468
  -2.826        -12.466
  -2.824        -12.463
  -2.822        -12.460
  -2.820        -12.457
  -2.817        -12.455
  -2.815        -12.452
  -2.813        -12.449
  -2.811        -12.447
  -2.809        -12.444
  -2.807        -12.441
  -2.805        -12.438
  -2.802        -12.436
  -2.800        -12.433
  -2.798        -12.431
  -2.796        -12.428
  -2.794        -12.426
  -2.792        -12.423
  -2.789        -12.420
  -2.787        -12.418
  -2.785        -12.415
  -2.783        -12.413
  -2.781        -12.410
  -2.779        -12.408
  -2.776        -12.405
  -2.774        -12.403
  -2.772        -12.400
  -2.770        -12.398
  -2.767        -12.395
  -2.765        -12.393
  -2.763        -12.390
  -2.761        -12.388
  -2.759        -12.385
  -2.757        -12.383
  -2.754        -12.381
  -2.753        -12.378
  -2.750        -12.376
  -2.748        -12.373
  -2.746        -12.371
  -2.744        -12.369
  -2.741        -12.366
  -2.739        -12.364
  -2.737        -12.362
  -2.735        -12.360
  -2.733        -12.357
  -2.731        -12.355
  -2.729        -12.353
  -2.726        -12.350
  -2.724        -12.348
  -2.722        -12.346
  -2.720        -12.344
  -2.718        -12.342
  -2.716        -12.339
  -2.713        -12.337
  -2.711        -12.335
  -2.709        -12.333
  -2.707        -12.331
  -2.705        -12.329
  -2.703        -12.327
  -2.700        -12.325
  -2.698        -12.322
  -2.696        -12.320
  -2.694        -12.318
  -2.692        -12.316
  -2.689        -12.314
  -2.687        -12.312
  -2.685        -12.310
  -2.683        -12.308
  -2.681        -12.306
  -2.679        -12.304
  -2.677        -12.302
  -2.674        -12.301
  -2.672        -12.299
  -2.670        -12.297
  -2.668        -12.295
  -2.666        -12.293
  -2.663        -12.291
  -2.661        -12.289
  -2.659        -12.287
  -2.657        -12.286
  -2.655        -12.284
  -2.653        -12.282
  -2.650        -12.280
  -2.648        -12.278
  -2.646        -12.277
  -2.644        -12.275
  -2.642        -12.273
  -2.640        -12.272
  -2.637        -12.270
  -2.635        -12.268
  -2.633        -12.267
  -2.631        -12.265
  -2.629        -12.264
  -2.626        -12.262
  -2.624        -12.260
  -2.622        -12.259
  -2.620        -12.257
  -2.618        -12.256
  -2.616        -12.254
  -2.614        -12.253
  -2.611        -12.251
  -2.609        -12.250
  -2.607        -12.248
  -2.605        -12.247
  -2.603        -12.246
  -2.600        -12.244
  -2.598        -12.243
  -2.596        -12.242
  -2.594        -12.240
  -2.592        -12.239
  -2.590        -12.238
  -2.587        -12.236
  -2.585        -12.235
  -2.583        -12.234
  -2.581        -12.233
  -2.579        -12.231
  -2.577        -12.230
  -2.574        -12.229
  -2.572        -12.228
  -2.570        -12.227
  -2.568        -12.226
  -2.566        -12.225
  -2.564        -12.224
  -2.561        -12.223
  -2.559        -12.222
  -2.557        -12.221
  -2.555        -12.220
  -2.553        -12.219
  -2.551        -12.218
  -2.548        -12.217
  -2.546        -12.216
  -2.544        -12.215
  -2.542        -12.214
  -2.540        -12.213
  -2.538        -12.212
  -2.535        -12.212
  -2.533        -12.211
  -2.531        -12.210
  -2.529        -12.209
  -2.527        -12.209
  -2.525        -12.208
  -2.522        -12.208
  -2.520        -12.207
  -2.518        -12.206
  -2.516        -12.206
  -2.514        -12.205
  -2.511        -12.205
  -2.509        -12.204
  -2.507        -12.204
  -2.505        -12.203
  -2.503        -12.203
  -2.501        -12.202
  -2.498        -12.202
  -2.496        -12.202
  -2.494        -12.201
  -2.492        -12.201
  -2.490        -12.201
  -2.488        -12.200
  -2.485        -12.200
  -2.483        -12.200
  -2.481        -12.200
  -2.479        -12.200
  -2.477        -12.199
  -2.475        -12.199
  -2.472        -12.199
  -2.470        -12.199
  -2.468        -12.199
  -2.466        -12.199
  -2.464        -12.199
  -2.462        -12.199
  -2.459        -12.199
  -2.457        -12.199
  -2.455        -12.199
  -2.453        -12.200
  -2.451        -12.200
  -2.448        -12.200
  -2.446        -12.200
  -2.444        -12.200
  -2.442        -12.201
  -2.440        -12.201
  -2.438        -12.201
  -2.435        -12.202
  -2.433        -12.202
  -2.431        -12.203
  -2.429        -12.203
  -2.427        -12.204
  -2.425        -12.204
  -2.422        -12.205
  -2.420        -12.205
  -2.418        -12.206
  -2.416        -12.207
  -2.414        -12.207
  -2.412        -12.208
  -2.409        -12.209
  -2.407        -12.210
  -2.405        -12.210
  -2.403        -12.211
  -2.401        -12.212
  -2.398        -12.213
  -2.396        -12.214
  -2.394        -12.215
  -2.392        -12.216
  -2.390        -12.217
  -2.388        -12.218
  -2.386        -12.219
  -2.383        -12.220
  -2.381        -12.221
  -2.379        -12.223
  -2.377        -12.224
  -2.375        -12.225
  -2.372        -12.226
  -2.370        -12.228
  -2.368        -12.229
  -2.366        -12.231
  -2.364        -12.232
  -2.362        -12.233
  -2.359        -12.235
  -2.357        -12.237
  -2.355        -12.238
  -2.353        -12.240
  -2.351        -12.241
  -2.349        -12.243
  -2.346        -12.245
  -2.344        -12.247
  -2.342        -12.248
  -2.340        -12.250
  -2.338        -12.252
  -2.336        -12.254
  -2.333        -12.256
  -2.331        -12.258
  -2.329        -12.260
  -2.327        -12.262
  -2.325        -12.264
  -2.323        -12.266
  -2.320        -12.269
  -2.318        -12.271
  -2.316        -12.273
  -2.314        -12.276
  -2.312        -12.278
  -2.309        -12.280
  -2.307        -12.283
  -2.305        -12.285
  -2.303        -12.288
  -2.301        -12.290
  -2.299        -12.293
  -2.297        -12.296
  -2.294        -12.298
  -2.292        -12.301
  -2.290        -12.304
  -2.288        -12.307
  -2.286        -12.310
  -2.283        -12.313
  -2.281        -12.316
  -2.279        -12.319
  -2.277        -12.322
  -2.275        -12.325
  -2.273        -12.328
  -2.270        -12.331
  -2.268        -12.334
  -2.266        -12.337
  -2.264        -12.341
  -2.262        -12.344
  -2.260        -12.348
  -2.257        -12.351
  -2.255        -12.355
  -2.253        -12.358
  -2.251        -12.362
  -2.249        -12.365
  -2.247        -12.369
  -2.244        -12.373
  -2.242        -12.377
  -2.240        -12.381
  -2.238        -12.385
  -2.236        -12.388
  -2.234        -12.393
  -2.231        -12.397
  -2.229        -12.401
  -2.227        -12.405
  -2.225        -12.409
  -2.223        -12.413
  -2.220        -12.418
  -2.218        -12.422
  -2.216        -12.427
  -2.214        -12.431
  -2.212        -12.436
  -2.210        -12.440
  -2.207        -12.445
  -2.205        -12.449
  -2.203        -12.454
  -2.201        -12.459
  -2.199        -12.464
  -2.197        -12.469
  -2.194        -12.474
  -2.192        -12.479
  -2.190        -12.484
  -2.188        -12.489
  -2.186        -12.494
  -2.184        -12.499
  -2.181        -12.505
  -2.179        -12.510
  -2.177        -12.515
  -2.175        -12.521
  -2.173        -12.527
  -2.171        -12.532
  -2.168        -12.538
  -2.166        -12.544
  -2.164        -12.549
  -2.162        -12.555
  -2.160        -12.561
  -2.158        -12.567
  -2.155        -12.573
  -2.153        -12.579
  -2.151        -12.585
  -2.149        -12.591
  -2.147        -12.598
  -2.145        -12.604
  -2.142        -12.610
  -2.140        -12.617
  -2.138        -12.623
  -2.136        -12.630
  -2.134        -12.637
  -2.131        -12.643
  -2.129        -12.650
  -2.127        -12.657
  -2.125        -12.664
  -2.123        -12.671
  -2.121        -12.678
  -2.118        -12.685
  -2.116        -12.692
  -2.114        -12.700
  -2.112        -12.707
  -2.110        -12.714
  -2.108        -12.722
  -2.105        -12.729
  -2.103        -12.737
  -2.101        -12.745
  -2.099        -12.752
  -2.097        -12.760
  -2.095        -12.768
  -2.092        -12.776
  -2.090        -12.784
  -2.088        -12.792
  -2.086        -12.800
  -2.084        -12.809
  -2.082        -12.817
  -2.079        -12.825
  -2.077        -12.834
  -2.075        -12.842
  -2.073        -12.851
  -2.071        -12.859
  -2.069        -12.868
  -2.066        -12.877
  -2.064        -12.886
  -2.062        -12.895
  -2.060        -12.904
  -2.058        -12.913
  -2.056        -12.923
  -2.053        -12.932
  -2.051        -12.941
  -2.049        -12.951
  -2.047        -12.960
  -2.045        -12.970
  -2.043        -12.980
  -2.040        -12.989
  -2.038        -12.999
  -2.036        -13.009
  -2.034        -13.019
  -2.032        -13.029
  -2.029        -13.039
  -2.027        -13.050
  -2.025        -13.060
  -2.023        -13.071
  -2.021        -13.081
  -2.019        -13.092
  -2.016        -13.102
  -2.014        -13.113
  -2.012        -13.124
  -2.010        -13.135
  -2.008        -13.146
  -2.006        -13.157
  -2.003        -13.168
  -2.001        -13.180
  -1.999        -13.191
  -1.997        -13.203
  -1.995        -13.214
  -1.993        -13.226
  -1.990        -13.238
  -1.988        -13.249
  -1.986        -13.262
  -1.984        -13.273
  -1.982        -13.286
  -1.980        -13.298
  -1.977        -13.310
  -1.975        -13.323
  -1.973        -13.335
  -1.971        -13.348
  -1.969        -13.360
  -1.967        -13.373
  -1.964        -13.386
  -1.962        -13.399
  -1.960        -13.412
  -1.958        -13.426
  -1.956        -13.439
  -1.953        -13.452
  -1.951        -13.465
  -1.949        -13.479
  -1.947        -13.493
  -1.945        -13.506
  -1.943        -13.521
  -1.940        -13.534
  -1.938        -13.549
  -1.936        -13.563
  -1.934        -13.577
  -1.932        -13.591
  -1.930        -13.606
  -1.927        -13.621
  -1.925        -13.635
  -1.923        -13.650
  -1.921        -13.665
  -1.919        -13.680
  -1.917        -13.695
  -1.914        -13.711
  -1.912        -13.726
  -1.910        -13.741
  -1.908        -13.757
  -1.906        -13.773
  -1.904        -13.788
  -1.901        -13.804
  -1.899        -13.820
  -1.897        -13.837
  -1.895        -13.853
  -1.893        -13.869
  -1.891        -13.886
  -1.888        -13.902
  -1.886        -13.919
  -1.884        -13.936
  -1.882        -13.953
  -1.880        -13.970
  -1.877        -13.987
  -1.875        -14.004
  -1.873        -14.022
  -1.871        -14.039
  -1.869        -14.057
  -1.867        -14.075
  -1.864        -14.093
  -1.862        -14.111
  -1.860        -14.129
  -1.858        -14.147
  -1.856        -14.165
  -1.853        -14.184
  -1.851        -14.203
  -1.849        -14.221
  -1.847        -14.240
  -1.845        -14.259
  -1.843        -14.279
  -1.841        -14.298
  -1.838        -14.317
  -1.836        -14.337
  -1.834        -14.356
  -1.832        -14.376
  -1.830        -14.396
  -1.828        -14.416
  -1.825        -14.436
  -1.823        -14.457
  -1.821        -14.477
  -1.819        -14.498
  -1.817        -14.519
  -1.815        -14.539
  -1.812        -14.561
  -1.810        -14.582
  -1.808        -14.603
  -1.806        -14.625
  -1.804        -14.646
  -1.801        -14.668
  -1.799        -14.690
  -1.797        -14.712
  -1.795        -14.734
  -1.793        -14.756
  -1.791        -14.779
  -1.788        -14.801
  -1.786        -14.824
  -1.784        -14.847
  -1.782        -14.870
  -1.780        -14.893
  -1.777        -14.916
  -1.775        -14.940
  -1.773        -14.963
  -1.771        -14.987
  -1.769        -15.011
  -1.767        -15.035
  -1.764        -15.059
  -1.763        -15.083
  -1.760        -15.108
  -1.758        -15.133
  -1.756        -15.157
  -1.754        -15.182
  -1.752        -15.208
  -1.749        -15.233
  -1.747        -15.259
  -1.745        -15.284
  -1.743        -15.310
  -1.741        -15.336
  -1.739        -15.362
  -1.736        -15.389
  -1.734        -15.415
  -1.732        -15.441
  -1.730        -15.468
  -1.728        -15.495
  -1.726        -15.522
  -1.723        -15.549
  -1.721        -15.577
  -1.719        -15.604
  -1.717        -15.632
  -1.715        -15.660
  -1.713        -15.688
  -1.710        -15.717
  -1.708        -15.745
  -1.706        -15.774
  -1.704        -15.802
  -1.702        -15.832
  -1.699        -15.861
  -1.697        -15.890
  -1.695        -15.920
  -1.693        -15.949
  -1.691        -15.979
  -1.689        -16.009
  -1.686        -16.040
  -1.684        -16.070
  -1.682        -16.100
  -1.680        -16.131
  -1.678        -16.162
  -1.675        -16.194
  -1.673        -16.225
  -1.671        -16.256
  -1.669        -16.288
  -1.667        -16.320
  -1.665        -16.352
  -1.663        -16.384
  -1.660        -16.417
  -1.658        -16.450
  -1.656        -16.482
  -1.654        -16.516
  -1.652        -16.549
  -1.650        -16.582
  -1.647        -16.616
  -1.645        -16.650
  -1.643        -16.683
  -1.641        -16.718
  -1.639        -16.752
  -1.637        -16.786
  -1.634        -16.821
  -1.632        -16.856
  -1.630        -16.891
  -1.628        -16.927
  -1.626        -16.962
  -1.623        -16.998
  -1.621        -17.034
  -1.619        -17.070
  -1.617        -17.106
  -1.615        -17.143
  -1.613        -17.179
  -1.611        -17.216
  -1.608        -17.253
  -1.606        -17.290
  -1.604        -17.327
  -1.602        -17.365
  -1.600        -17.402
  -1.597        -17.440
  -1.595        -17.478
  -1.593        -17.516
  -1.591        -17.554
  -1.589        -17.592
  -1.587        -17.630
  -1.584        -17.669
  -1.582        -17.707
  -1.580        -17.746
  -1.578        -17.784
  -1.576        -17.823
  -1.573        -17.862
  -1.571        -17.900
  -1.569        -17.939
  -1.567        -17.977
  -1.565        -18.015
  -1.563        -18.054
  -1.561        -18.092
  -1.558        -18.130
  -1.556        -18.167
  -1.554        -18.205
  -1.552        -18.242
  -1.550        -18.279
  -1.547        -18.315
  -1.545        -18.351
  -1.543        -18.386
  -1.541        -18.421
  -1.539        -18.456
  -1.537        -18.489
  -1.534        -18.522
  -1.532        -18.554
  -1.530        -18.585
  -1.528        -18.615
  -1.526        -18.644
  -1.524        -18.673
  -1.522        -18.700
  -1.519        -18.726
  -1.517        -18.751
  -1.515        -18.775
  -1.513        -18.798
  -1.511        -18.819
  -1.508        -18.840
  -1.506        -18.859
  -1.504        -18.877
  -1.502        -18.894
  -1.500        -18.910
  -1.498        -18.925
  -1.495        -18.939
  -1.493        -18.951
  -1.491        -18.963
  -1.489        -18.974
  -1.487        -18.984
  -1.484        -18.993
  -1.482        -19.001
  -1.480        -19.009
  -1.478        -19.016
  -1.476        -19.023
  -1.474        -19.029
  -1.472        -19.034
  -1.469        -19.039
  -1.467        -19.044
  -1.465        -19.048
  -1.463        -19.051
  -1.461        -19.055
  -1.458        -19.058
  -1.456        -19.061
  -1.454        -19.063
  -1.452        -19.066
  -1.450        -19.068
  -1.448        -19.070
  -1.445        -19.072
  -1.443        -19.074
  -1.441        -19.076
  -1.439        -19.077
  -1.437        -19.079
  -1.435        -19.080
  -1.432        -19.082
  -1.430        -19.083
  -1.428        -19.084
  -1.426        -19.085
  -1.424        -19.086
  -1.422        -19.087
  -1.419        -19.089
  -1.417        -19.089
  -1.415        -19.090
  -1.413        -19.091
  -1.411        -19.092
  -1.409        -19.093
  -1.406        -19.094
  -1.404        -19.095
  -1.402        -19.096
  -1.400        -19.097
  -1.398        -19.097
  -1.396        -19.098
  -1.393        -19.099
  -1.391        -19.100
  -1.389        -19.101
  -1.387        -19.102
  -1.385        -19.102
  -1.383        -19.103
  -1.380        -19.104
  -1.378        -19.105
  -1.376        -19.105
  -1.374        -19.106
  -1.372        -19.107
  -1.370        -19.108
  -1.367        -19.108
  -1.365        -19.109
  -1.363        -19.110
  -1.361        -19.111
  -1.359        -19.112
  -1.356        -19.112
  -1.354        -19.113
  -1.352        -19.113
  -1.350        -19.115
  -1.348        -19.115
  -1.346        -19.116
  -1.343        -19.117
  -1.341        -19.117
  -1.339        -19.118
  -1.337        -19.119
  -1.335        -19.120
  -1.333        -19.120
  -1.330        -19.121
  -1.328        -19.122
  -1.326        -19.122
  -1.324        -19.123
  -1.322        -19.124
  -1.320        -19.125
  -1.317        -19.125
  -1.315        -19.126
  -1.313        -19.127
  -1.311        -19.128
  -1.309        -19.128
  -1.307        -19.129
  -1.304        -19.129
  -1.302        -19.130
  -1.300        -19.131
  -1.298        -19.132
  -1.296        -19.132
  -1.293        -19.133
  -1.291        -19.134
  -1.289        -19.134
  -1.287        -19.135
  -1.285        -19.136
  -1.283        -19.137
  -1.280        -19.137
  -1.278        -19.138
  -1.276        -19.139
  -1.274        -19.139
  -1.272        -19.140
  -1.270        -19.141
  -1.267        -19.142
  -1.265        -19.142
  -1.263        -19.143
  -1.261        -19.144
  -1.259        -19.144
  -1.257        -19.145
  -1.254        -19.145
  -1.252        -19.146
  -1.250        -19.147
  -1.248        -19.148
  -1.246        -19.148
  -1.243        -19.149
  -1.241        -19.150
  -1.239        -19.150
  -1.237        -19.151
  -1.235        -19.152
  -1.233        -19.152
  -1.231        -19.153
  -1.228        -19.154
  -1.226        -19.154
  -1.224        -19.155
  -1.222        -19.156
  -1.220        -19.157
  -1.217        -19.157
  -1.215        -19.158
  -1.213        -19.159
  -1.211        -19.159
  -1.209        -19.160
  -1.207        -19.161
  -1.204        -19.162
  -1.202        -19.162
  -1.200        -19.163
  -1.198        -19.163
  -1.196        -19.164
  -1.194        -19.165
  -1.191        -19.166
  -1.189        -19.166
  -1.187        -19.167
  -1.185        -19.168
  -1.183        -19.169
  -1.181        -19.169
  -1.178        -19.170
  -1.176        -19.171
  -1.174        -19.172
  -1.172        -19.172
  -1.170        -19.173
  -1.168        -19.174
  -1.165        -19.175
  -1.163        -19.175
  -1.161        -19.176
  -1.159        -19.177
  -1.157        -19.177
  -1.155        -19.178
  -1.152        -19.179
  -1.150        -19.180
  -1.148        -19.181
  -1.146        -19.181
  -1.144        -19.182
  -1.142        -19.183
  -1.139        -19.184
  -1.137        -19.184
  -1.135        -19.185
  -1.133        -19.186
  -1.131        -19.187
  -1.129        -19.188
  -1.126        -19.189
  -1.124        -19.189
  -1.122        -19.190
  -1.120        -19.191
  -1.118        -19.192
  -1.115        -19.193
  -1.113        -19.194
  -1.111        -19.195
  -1.109        -19.196
  -1.107        -19.197
  -1.105        -19.197
  -1.102        -19.198
  -1.100        -19.199
  -1.098        -19.200
  -1.096        -19.201
  -1.094        -19.202
  -1.092        -19.203
  -1.089        -19.204
  -1.087        -19.205
  -1.085        -19.206
  -1.083        -19.207
  -1.081        -19.208
  -1.079        -19.209
  -1.076        -19.210
  -1.074        -19.211
  -1.072        -19.212
  -1.070        -19.214
  -1.068        -19.215
  -1.066        -19.216
  -1.063        -19.217
  -1.061        -19.218
  -1.059        -19.219
  -1.057        -19.220
  -1.055        -19.222
  -1.052        -19.223
  -1.050        -19.224
  -1.048        -19.226
  -1.046        -19.227
  -1.044        -19.228
  -1.042        -19.229
  -1.039        -19.231
  -1.037        -19.232
  -1.035        -19.234
  -1.033        -19.235
  -1.031        -19.236
  -1.029        -19.238
  -1.026        -19.240
  -1.024        -19.241
  -1.022        -19.243
  -1.020        -19.244
  -1.018        -19.246
  -1.016        -19.247
  -1.013        -19.249
  -1.011        -19.251
  -1.009        -19.252
  -1.007        -19.254
  -1.005        -19.256
  -1.003        -19.257
  -1.000        -19.259
  -0.998        -19.261
  -0.996        -19.263
  -0.994        -19.264
  -0.992        -19.266
  -0.990        -19.268
  -0.987        -19.270
  -0.985        -19.271
  -0.983        -19.273
  -0.981        -19.274
  -0.979        -19.276
  -0.977        -19.278
  -0.974        -19.279
  -0.972        -19.281
  -0.970        -19.283
  -0.968        -19.284
  -0.966        -19.286
  -0.963        -19.287
  -0.961        -19.289
  -0.959        -19.290
  -0.957        -19.292
  -0.955        -19.293
  -0.953        -19.295
  -0.950        -19.296
  -0.948        -19.298
  -0.946        -19.299
  -0.944        -19.301
  -0.942        -19.302
  -0.940        -19.304
  -0.937        -19.305
  -0.935        -19.306
  -0.933        -19.308
  -0.931        -19.309
  -0.929        -19.310
  -0.927        -19.312
  -0.924        -19.313
  -0.922        -19.314
  -0.920        -19.315
  -0.918        -19.316
  -0.916        -19.318
  -0.914        -19.319
  -0.911        -19.320
  -0.909        -19.321
  -0.907        -19.322
  -0.905        -19.323
  -0.903        -19.324
  -0.900        -19.325
  -0.898        -19.326
  -0.896        -19.327
  -0.894        -19.329
  -0.892        -19.330
  -0.890        -19.331
  -0.887        -19.332
  -0.885        -19.333
  -0.883        -19.334
  -0.881        -19.334
  -0.879        -19.335
  -0.877        -19.336
  -0.874        -19.337
  -0.872        -19.338
  -0.870        -19.338
  -0.868        -19.340
  -0.866        -19.341
  -0.864        -19.341
  -0.862        -19.342
  -0.859        -19.343
  -0.857        -19.343
  -0.855        -19.343
  -0.853        -19.344
  -0.851        -19.345
  -0.848        -19.346
  -0.846        -19.346
  -0.844        -19.347
  -0.842        -19.347
  -0.840        -19.348
  -0.838        -19.348
  -0.835        -19.348
  -0.833        -19.348
  -0.831        -19.349
  -0.829        -19.349
  -0.827        -19.349
  -0.825        -19.349
  -0.822        -19.350
  -0.820        -19.350
  -0.818        -19.350
  -0.816        -19.350
  -0.814        -19.350
  -0.812        -19.350
  -0.809        -19.350
  -0.807        -19.350
  -0.805        -19.350
  -0.803        -19.350
  -0.801        -19.350
  -0.799        -19.350
  -0.796        -19.350
  -0.794        -19.350
  -0.792        -19.350
  -0.790        -19.349
  -0.788        -19.349
  -0.785        -19.349
  -0.783        -19.349
  -0.781        -19.349
  -0.779        -19.348
  -0.777        -19.348
  -0.774        -19.348
  -0.772        -19.347
  -0.770        -19.347
  -0.768        -19.346
  -0.766        -19.346
  -0.764        -19.346
  -0.762        -19.345
  -0.759        -19.345
  -0.757        -19.344
  -0.755        -19.343
  -0.753        -19.343
  -0.751        -19.342
  -0.748        -19.342
  -0.746        -19.341
  -0.744        -19.340
  -0.742        -19.339
  -0.740        -19.339
  -0.738        -19.338
  -0.736        -19.337
  -0.733        -19.336
  -0.731        -19.335
  -0.729        -19.335
  -0.727        -19.334
  -0.725        -19.333
  -0.723        -19.332
  -0.720        -19.331
  -0.718        -19.330
  -0.716        -19.329
  -0.714        -19.328
  -0.712        -19.327
  -0.709        -19.326
  -0.707        -19.325
  -0.705        -19.324
  -0.703        -19.322
  -0.701        -19.321
  -0.699        -19.320
  -0.697        -19.319
  -0.694        -19.318
  -0.692        -19.316
  -0.690        -19.315
  -0.688        -19.314
  -0.685        -19.313
  -0.683        -19.311
  -0.681        -19.310
  -0.679        -19.309
  -0.677        -19.307
  -0.675        -19.306
  -0.673        -19.304
  -0.670        -19.303
  -0.668        -19.301
  -0.666        -19.300
  -0.664        -19.299
  -0.662        -19.297
  -0.659        -19.296
  -0.657        -19.294
  -0.655        -19.293
  -0.653        -19.291
  -0.651        -19.290
  -0.649        -19.288
  -0.647        -19.286
  -0.644        -19.285
  -0.642        -19.283
  -0.640        -19.281
  -0.638        -19.280
  -0.636        -19.278
  -0.633        -19.276
  -0.631        -19.275
  -0.629        -19.273
  -0.627        -19.271
  -0.625        -19.269
  -0.623        -19.268
  -0.621        -19.266
  -0.618        -19.264
  -0.616        -19.262
  -0.614        -19.261
  -0.612        -19.259
  -0.610        -19.257
  -0.608        -19.255
  -0.605        -19.253
  -0.603        -19.251
  -0.601        -19.249
  -0.599        -19.247
  -0.596        -19.245
  -0.594        -19.243
  -0.592        -19.241
  -0.590        -19.238
  -0.588        -19.236
  -0.586        -19.234
  -0.584        -19.232
  -0.581        -19.229
  -0.579        -19.227
  -0.577        -19.224
  -0.575        -19.222
  -0.573        -19.220
  -0.571        -19.217
  -0.568        -19.215
  -0.566        -19.212
  -0.564        -19.210
  -0.562        -19.208
  -0.560        -19.205
  -0.557        -19.203
  -0.555        -19.200
  -0.553        -19.198
  -0.551        -19.195
  -0.549        -19.193
  -0.547        -19.191
  -0.544        -19.188
  -0.542        -19.186
  -0.540        -19.183
  -0.538        -19.181
  -0.536        -19.178
  -0.534        -19.176
  -0.531        -19.174
  -0.529        -19.171
  -0.527        -19.168
  -0.525        -19.166
  -0.523        -19.163
  -0.521        -19.161
  -0.518        -19.159
  -0.516        -19.156
  -0.514        -19.153
  -0.512        -19.151
  -0.510        -19.148
  -0.507        -19.146
  -0.505        -19.143
  -0.503        -19.141
  -0.501        -19.138
  -0.499        -19.136
  -0.497        -19.133
  -0.495        -19.130
  -0.492        -19.128
  -0.490        -19.125
  -0.488        -19.123
  -0.486        -19.120
  -0.484        -19.117
  -0.482        -19.115
  -0.479        -19.112
  -0.477        -19.110
  -0.475        -19.107
  -0.473        -19.104
  -0.471        -19.102
  -0.468        -19.099
  -0.466        -19.096
  -0.464        -19.094
  -0.462        -19.091
  -0.460        -19.088
  -0.458        -19.085
  -0.455        -19.083
  -0.453        -19.080
  -0.451        -19.077
  -0.449        -19.075
  -0.447        -19.072
  -0.445        -19.069
  -0.442        -19.067
  -0.440        -19.064
  -0.438        -19.061
  -0.436        -19.058
  -0.434        -19.056
  -0.432        -19.053
  -0.429        -19.050
  -0.427        -19.048
  -0.425        -19.045
  -0.423        -19.042
  -0.421        -19.040
  -0.419        -19.037
  -0.416        -19.034
  -0.414        -19.032
  -0.412        -19.029
  -0.410        -19.027
  -0.408        -19.024
  -0.405        -19.021
  -0.403        -19.019
  -0.401        -19.017
  -0.399        -19.014
  -0.397        -19.012
  -0.395        -19.009
  -0.392        -19.007
  -0.390        -19.004
  -0.388        -19.002
  -0.386        -18.999
  -0.384        -18.997
  -0.382        -18.995
  -0.379        -18.992
  -0.377        -18.990
  -0.375        -18.988
  -0.373        -18.986
  -0.371        -18.983
  -0.369        -18.981
  -0.366        -18.979
  -0.364        -18.976
  -0.362        -18.974
  -0.360        -18.972
  -0.358        -18.970
  -0.356        -18.967
  -0.353        -18.965
  -0.351        -18.963
  -0.349        -18.960
  -0.347        -18.958
  -0.345        -18.956
  -0.343        -18.954
  -0.340        -18.952
  -0.338        -18.949
  -0.336        -18.947
  -0.334        -18.945
  -0.332        -18.943
  -0.330        -18.940
  -0.327        -18.938
  -0.325        -18.936
  -0.323        -18.934
  -0.321        -18.932
  -0.319        -18.929
  -0.316        -18.928
  -0.314        -18.926
  -0.312        -18.924
  -0.310        -18.921
  -0.308        -18.919
  -0.306        -18.917
  -0.303        -18.915
  -0.301        -18.913
  -0.299        -18.912
  -0.297        -18.910
  -0.295        -18.909
  -0.293        -18.907
  -0.290        -18.906
  -0.288        -18.904
  -0.286        -18.903
  -0.284        -18.901
  -0.282        -18.899
  -0.280        -18.898
  -0.277        -18.897
  -0.275        -18.896
  -0.273        -18.895
  -0.271        -18.893
  -0.269        -18.892
  -0.267        -18.891
  -0.264        -18.890
  -0.262        -18.889
  -0.260        -18.888
  -0.258        -18.887
  -0.256        -18.886
  -0.253        -18.885
  -0.251        -18.884
  -0.249        -18.883
  -0.247        -18.881
  -0.245        -18.881
  -0.243        -18.880
  -0.241        -18.879
  -0.238        -18.878
  -0.236        -18.877
  -0.234        -18.876
  -0.232        -18.875
  -0.230        -18.874
  -0.227        -18.874
  -0.225        -18.873
  -0.223        -18.872
  -0.221        -18.871
  -0.219        -18.871
  -0.217        -18.870
  -0.214        -18.870
  -0.212        -18.869
  -0.210        -18.869
  -0.208        -18.868
  -0.206        -18.867
  -0.204        -18.867
  -0.201        -18.866
  -0.199        -18.866
  -0.197        -18.866
  -0.195        -18.865
  -0.193        -18.865
  -0.191        -18.865
  -0.188        -18.865
  -0.186        -18.864
  -0.184        -18.864
  -0.182        -18.864
  -0.180        -18.864
  -0.178        -18.863
  -0.175        -18.863
  -0.173        -18.863
  -0.171        -18.863
  -0.169        -18.864
  -0.167        -18.864
  -0.164        -18.864
  -0.162        -18.864
  -0.160        -18.864
  -0.158        -18.864
  -0.156        -18.864
  -0.154        -18.864
  -0.151        -18.865
  -0.149        -18.865
  -0.147        -18.865
  -0.145        -18.866
  -0.143        -18.866
  -0.141        -18.866
  -0.138        -18.867
  -0.136        -18.867
  -0.134        -18.867
  -0.132        -18.868
  -0.130        -18.868
  -0.128        -18.868
  -0.125        -18.869
  -0.123        -18.869
  -0.121        -18.870
  -0.119        -18.870
  -0.117        -18.871
  -0.115        -18.871
  -0.112        -18.871
  -0.110        -18.871
  -0.108        -18.872
  -0.106        -18.872
  -0.104        -18.872
  -0.102        -18.872
  -0.099        -18.873
  -0.097        -18.873
  -0.095        -18.873
  -0.093        -18.873
  -0.091        -18.874
  -0.089        -18.874
  -0.086        -18.874
  -0.084        -18.874
  -0.082        -18.874
  -0.080        -18.874
  -0.078        -18.874
  -0.075        -18.874
  -0.073        -18.874
  -0.071        -18.875
  -0.069        -18.875
  -0.067        -18.875
  -0.065        -18.875
  -0.063        -18.875
  -0.060        -18.875
  -0.058        -18.875
  -0.056        -18.875
  -0.054        -18.875
  -0.052        -18.875
  -0.049        -18.875
  -0.047        -18.875
  -0.045        -18.876
  -0.043        -18.876
  -0.041        -18.876
  -0.039        -18.876
  -0.036        -18.876
  -0.034        -18.876
  -0.032        -18.877
  -0.030        -18.877
  -0.028        -18.877
  -0.026        -18.877
  -0.023        -18.877
  -0.021        -18.877
  -0.019        -18.877
  -0.017        -18.877
  -0.015        -18.877
  -0.013        -18.877
  -0.010        -18.878
  -0.008        -18.878
  -0.006        -18.878
  -0.004        -18.878
  -0.002        -18.878
   0.000        -18.878
   0.003        -18.878
   0.005        -18.878
   0.007        -18.878
   0.009        -18.879
   0.011        -18.879
   0.013        -18.879
   0.016        -18.879
   0.018        -18.879
   0.020        -18.879
   0.022        -18.879
   0.024        -18.879
   0.027        -18.879
   0.029        -18.879
   0.031        -18.879
   0.033        -18.879
   0.035        -18.880
   0.037        -18.880
   0.040        -18.880
   0.042        -18.880
   0.044        -18.880
   0.046        -18.880
   0.048        -18.880
   0.050        -18.881
   0.053        -18.881
   0.055        -18.881
   0.057        -18.881
   0.059        -18.881
   0.061        -18.881
   0.063        -18.881
   0.066        -18.881
   0.068        -18.882
   0.070        -18.882
   0.072        -18.882
   0.074        -18.882
   0.076        -18.882
   0.079        -18.882
   0.081        -18.882
   0.083        -18.882
   0.085        -18.882
   0.087        -18.882
   0.089        -18.882
   0.092        -18.882
   0.094        -18.882
   0.096        -18.882
   0.098        -18.882
   0.100        -18.882
   0.103        -18.882
   0.105        -18.882
   0.107        -18.882
   0.109        -18.882
   0.111        -18.882
   0.113        -18.882
   0.116        -18.882
   0.118        -18.882
   0.120        -18.882
   0.122        -18.882
   0.124        -18.882
   0.126        -18.882
   0.128        -18.882
   0.131        -18.881
   0.133        -18.882
   0.135        -18.882
   0.137        -18.881
   0.139        -18.881
   0.142        -18.881
   0.144        -18.881
   0.146        -18.881
   0.148        -18.881
   0.150        -18.880
   0.153        -18.880
   0.155        -18.880
   0.157        -18.880
   0.159        -18.880
   0.161        -18.880
   0.163        -18.879
   0.165        -18.879
   0.168        -18.879
   0.170        -18.878
   0.172        -18.878
   0.174        -18.878
   0.176        -18.878
   0.178        -18.878
   0.181        -18.878
   0.183        -18.877
   0.185        -18.877
   0.187        -18.877
   0.189        -18.877
   0.192        -18.877
   0.194        -18.877
   0.196        -18.877
   0.198        -18.877
   0.200        -18.877
   0.202        -18.877
   0.205        -18.877
   0.207        -18.877
   0.209        -18.878
   0.211        -18.878
   0.213        -18.878
   0.215        -18.878
   0.218        -18.879
   0.220        -18.879
   0.222        -18.880
   0.224        -18.881
   0.226        -18.881
   0.229        -18.882
   0.231        -18.882
   0.233        -18.883
   0.235        -18.883
   0.237        -18.884
   0.239        -18.885
   0.241        -18.886
   0.244        -18.886
   0.246        -18.887
   0.248        -18.888
   0.250        -18.889
   0.252        -18.890
   0.254        -18.890
   0.257        -18.891
   0.259        -18.892
   0.261        -18.893
   0.263        -18.894
   0.265        -18.895
   0.267        -18.895
   0.270        -18.896
   0.272        -18.897
   0.274        -18.898
   0.276        -18.899
   0.278        -18.900
   0.281        -18.901
   0.283        -18.901
   0.285        -18.902
   0.287        -18.904
   0.289        -18.904
   0.291        -18.906
   0.293        -18.906
   0.296        -18.908
   0.298        -18.908
   0.300        -18.909
   0.302        -18.911
   0.305        -18.912
   0.307        -18.913
   0.309        -18.914
   0.311        -18.915
   0.313        -18.916
   0.315        -18.917
   0.318        -18.919
   0.320        -18.920
   0.322        -18.921
   0.324        -18.922
   0.326        -18.923
   0.328        -18.925
   0.330        -18.926
   0.333        -18.927
   0.335        -18.928
   0.337        -18.930
   0.339        -18.931
   0.341        -18.932
   0.344        -18.934
   0.346        -18.935
   0.348        -18.936
   0.350        -18.938
   0.352        -18.939
   0.354        -18.940
   0.356        -18.942
   0.359        -18.943
   0.361        -18.945
   0.363        -18.946
   0.365        -18.948
   0.367        -18.949
   0.369        -18.950
   0.372        -18.952
   0.374        -18.953
   0.376        -18.955
   0.378        -18.956
   0.380        -18.958
   0.383        -18.959
   0.385        -18.960
   0.387        -18.962
   0.389        -18.964
   0.391        -18.966
   0.393        -18.967
   0.396        -18.969
   0.398        -18.971
   0.400        -18.972
   0.402        -18.974
   0.404        -18.976
   0.406        -18.978
   0.409        -18.980
   0.411        -18.982
   0.413        -18.984
   0.415        -18.986
   0.417        -18.988
   0.420        -18.990
   0.422        -18.992
   0.424        -18.994
   0.426        -18.996
   0.428        -18.999
   0.430        -19.001
   0.432        -19.003
   0.435        -19.005
   0.437        -19.007
   0.439        -19.010
   0.441        -19.012
   0.443        -19.014
   0.446        -19.016
   0.448        -19.019
   0.450        -19.021
   0.452        -19.024
   0.454        -19.027
   0.456        -19.030
   0.459        -19.032
   0.461        -19.035
   0.463        -19.038
   0.465        -19.041
   0.467        -19.043
   0.469        -19.046
   0.472        -19.049
   0.474        -19.051
   0.476        -19.054
   0.478        -19.056
   0.480        -19.059
   0.482        -19.062
   0.485        -19.064
   0.487        -19.067
   0.489        -19.069
   0.491        -19.070
   0.493        -19.071
   0.495        -19.071
   0.498        -19.072
   0.500        -19.073
   0.502        -19.074
   0.504        -19.074
   0.506        -19.075
   0.510        -19.076
   0.512        -19.076
   0.513        -19.075
   0.515        -19.075
   0.517        -19.074
   0.519        -19.073
   0.522        -19.073
   0.524        -19.072
   0.526        -19.072
   0.528        -19.071
   0.530        -19.070
   0.532        -19.070
   0.535        -19.069
   0.537        -19.068
   0.539        -19.068
   0.541        -19.067
   0.543        -19.066
   0.545        -19.066
   0.548        -19.065
   0.550        -19.064
   0.552        -19.064
   0.554        -19.063
   0.556        -19.062
   0.558        -19.062
   0.561        -19.061
   0.563        -19.061
   0.565        -19.060
   0.567        -19.059
   0.569        -19.059
   0.572        -19.058
   0.574        -19.057
   0.576        -19.057
   0.578        -19.056
   0.580        -19.056
   0.582        -19.055
   0.585        -19.054
   0.587        -19.054
   0.589        -19.053
   0.591        -19.053
   0.593        -19.052
   0.595        -19.052
   0.598        -19.051
   0.600        -19.051
   0.602        -19.050
   0.604        -19.049
   0.606        -19.049
   0.608        -19.048
   0.611        -19.048
   0.613        -19.047
   0.615        -19.046
   0.617        -19.045
   0.619        -19.045
   0.621        -19.044
   0.624        -19.043
   0.626        -19.042
   0.628        -19.042
   0.630        -19.041
   0.632        -19.040
   0.634        -19.040
   0.637        -19.039
   0.639        -19.038
   0.641        -19.037
   0.643        -19.037
   0.645        -19.036
   0.647        -19.035
   0.650        -19.034
   0.652        -19.033
   0.654        -19.033
   0.656        -19.032
   0.658        -19.030
   0.660        -19.030
   0.663        -19.029
   0.665        -19.028
   0.667        -19.026
   0.669        -19.026
   0.671        -19.025
   0.673        -19.024
   0.676        -19.023
   0.678        -19.022
   0.680        -19.022
   0.682        -19.021
   0.684        -19.021
   0.687        -19.020
   0.689        -19.019
   0.691        -19.019
   0.693        -19.019
   0.695        -19.018
   0.697        -19.017
   0.700        -19.017
   0.702        -19.017
   0.704        -19.017
   0.706        -19.016
   0.708        -19.016
   0.710        -19.016
   0.713        -19.015
   0.715        -19.015
   0.717        -19.015
   0.719        -19.014
   0.721        -19.014
   0.723        -19.013
   0.726        -19.013
   0.728        -19.013
   0.730        -19.012
   0.732        -19.012
   0.734        -19.011
   0.736        -19.011
   0.739        -19.010
   0.741        -19.010
   0.743        -19.009
   0.745        -19.009
   0.747        -19.008
   0.750        -19.008
   0.752        -19.007
   0.754        -19.007
   0.756        -19.006
   0.758        -19.006
   0.760        -19.005
   0.762        -19.005
   0.765        -19.004
   0.767        -19.004
   0.769        -19.003
   0.771        -19.003
   0.773        -19.003
   0.776        -19.002
   0.778        -19.002
   0.780        -19.002
   0.782        -19.002
   0.784        -19.002
   0.786        -19.002
   0.789        -19.002
   0.791        -19.002
   0.793        -19.002
   0.795        -19.002
   0.797        -19.002
   0.799        -19.002
   0.802        -19.002
   0.804        -19.004
   0.806        -19.005
   0.808        -19.006
   0.810        -19.008
   0.812        -19.009
   0.815        -19.010
   0.817        -19.012
   0.819        -19.013
   0.821        -19.014
   0.823        -19.016
   0.825        -19.018
   0.828        -19.021
   0.830        -19.023
   0.832        -19.025
   0.834        -19.027
   0.836        -19.029
   0.838        -19.031
   0.841        -19.034
   0.843        -19.036
   0.845        -19.038
   0.847        -19.041
   0.849        -19.043
   0.852        -19.046
   0.854        -19.048
   0.856        -19.051
   0.858        -19.053
   0.860        -19.056
   0.862        -19.058
   0.865        -19.061
   0.867        -19.063
   0.869        -19.066
   0.871        -19.069
   0.873        -19.071
   0.875        -19.074
   0.878        -19.077
   0.880        -19.079
   0.882        -19.082
   0.884        -19.084
   0.886        -19.087
   0.888        -19.091
   0.891        -19.094
   0.893        -19.097
   0.895        -19.100
   0.897        -19.104
   0.899        -19.107
   0.901        -19.110
   0.904        -19.113
   0.906        -19.117
   0.908        -19.121
   0.910        -19.125
   0.912        -19.129
   0.915        -19.133
   0.917        -19.136
   0.919        -19.140
   0.921        -19.144
   0.923        -19.148
   0.925        -19.152
   0.928        -19.157
   0.930        -19.161
   0.932        -19.166
   0.934        -19.171
   0.936        -19.176
   0.938        -19.181
   0.941        -19.186
   0.943        -19.190
   0.945        -19.195
   0.947        -19.200
   0.949        -19.207
   0.951        -19.213
   0.954        -19.220
   0.956        -19.226
   0.958        -19.233
   0.960        -19.239
   0.962        -19.246
   0.964        -19.253
   0.967        -19.259
   0.969        -19.265
   0.971        -19.270
   0.973        -19.275
   0.975        -19.280
   0.977        -19.285
   0.980        -19.291
   0.982        -19.296
   0.984        -19.300
   0.986        -19.306
   0.988        -19.315
   0.990        -19.326
   0.993        -19.332
   0.995        -19.338
   0.997        -19.344
   0.999        -19.349
   1.001        -19.355
   1.004        -19.361
   1.006        -19.367
   1.008        -19.373
   1.010        -19.380
   1.012        -19.392
   1.014        -19.403
   1.017        -19.415
   1.019        -19.427
   1.021        -19.438
   1.023        -19.450
   1.025        -19.461
   1.027        -19.473
   1.030        -19.484
   1.032        -19.500
   1.034        -19.517
   1.036        -19.534
   1.038        -19.551
   1.040        -19.568
   1.043        -19.585
   1.045        -19.602
   1.047        -19.619
   1.049        -19.636
   1.051        -19.654
   1.053        -19.681
   1.056        -19.709
   1.058        -19.737
   1.060        -19.765
   1.062        -19.793
   1.064        -19.821
   1.066        -19.849
   1.069        -19.877
   1.071        -19.905
   1.073        -19.952
   1.075        -20.018
   1.077        -20.084
   1.079        -20.149
   1.082        -20.215
   1.084        -20.280
   1.086        -20.346
   1.088        -20.412
   1.090        -20.477
   1.093        -20.546
   1.095        -20.645
   1.097        -20.753
   1.099        -20.861
   1.101        -20.968
   1.103        -21.076
   1.106        -21.184
   1.108        -21.292
   1.110        -21.399
   1.112        -21.521
   1.114        -21.585
   1.117        -21.588
   1.119        -21.591
   1.121        -21.595
   1.123        -21.598
   1.125        -21.601
   1.127        -21.604
   1.129        -21.607
   1.131        -21.610
   1.134        -21.614
   1.136        -21.617
   1.138        -21.620
   1.140        -21.623
   1.143        -21.626
   1.145        -21.629
   1.147        -21.632
   1.149        -21.635
   1.151        -21.638
   1.153        -21.641
   1.155        -21.644
   1.158        -21.646
   1.160        -21.648
   1.162        -21.650
   1.164        -21.653
   1.166        -21.655
   1.169        -21.657
   1.171        -21.660
   1.173        -21.662
   1.175        -21.664
   1.177        -21.667
   1.180        -21.669
   1.181        -21.671
   1.184        -21.674
   1.186        -21.677
   1.188        -21.679
   1.190        -21.682
   1.192        -21.684
   1.195        -21.687
   1.197        -21.689
   1.199        -21.691
   1.201        -21.694
   1.203        -21.696
   1.205        -21.698
   1.208        -21.701
   1.210        -21.703
   1.212        -21.705
   1.214        -21.708
   1.216        -21.710
   1.218        -21.713
   1.220        -21.715
   1.223        -21.718
   1.225        -21.720
   1.227        -21.722
   1.229        -21.725
   1.232        -21.727
   1.234        -21.729
   1.236        -21.732
   1.238        -21.734
   1.240        -21.735
   1.242        -21.737
   1.245        -21.739
   1.247        -21.740
   1.249        -21.742
   1.251        -21.743
   1.253        -21.745
   1.255        -21.746
   1.258        -21.748
   1.260        -21.750
   1.262        -21.752
   1.264        -21.753
   1.266        -21.755
   1.268        -21.757
   1.270        -21.759
   1.273        -21.760
   1.275        -21.762
   1.277        -21.764
   1.279        -21.766
   1.281        -21.768
   1.284        -21.771
   1.286        -21.773
   1.288        -21.775
   1.290        -21.777
   1.292        -21.780
   1.294        -21.782
   1.297        -21.784
   1.299        -21.786
   1.301        -21.789
   1.303        -21.792
   1.305        -21.795
   1.307        -21.798
   1.310        -21.801
   1.312        -21.804
   1.314        -21.807
   1.316        -21.810
   1.318        -21.813
   1.320        -21.816
   1.323        -21.820
   1.325        -21.825
   1.327        -21.829
   1.329        -21.833
   1.331        -21.838
   1.334        -21.842
   1.336        -21.846
   1.338        -21.851
   1.340        -21.855
   1.342        -21.860
   1.344        -21.865
   1.346        -21.870
   1.349        -21.876
   1.351        -21.881
   1.353        -21.886
   1.355        -21.891
   1.357        -21.897
   1.359        -21.902
   1.362        -21.907
   1.364        -21.912
   1.366        -21.917
   1.368        -21.923
   1.370        -21.928
   1.373        -21.933
   1.375        -21.938
   1.377        -21.943
   1.379        -21.948
   1.381        -21.954
   1.383        -21.957
   1.386        -21.959
   1.388        -21.961
   1.390        -21.963
   1.392        -21.964
   1.394        -21.966
   1.397        -21.968
   1.399        -21.970
   1.401        -21.972
   1.403        -21.974
   1.405        -21.976
   1.407        -21.978
   1.410        -21.980
   1.412        -21.983
   1.414        -21.985
   1.416        -21.988
   1.418        -21.990
   1.420        -21.992
   1.423        -21.995
   1.425        -21.997
   1.427        -22.000
   1.429        -22.003
   1.431        -22.006
   1.433        -22.009
   1.436        -22.012
   1.438        -22.015
   1.440        -22.018
   1.442        -22.021
   1.444        -22.024
   1.446        -22.027
   1.449        -22.030
   1.451        -22.034
   1.453        -22.037
   1.455        -22.041
   1.457        -22.044
   1.460        -22.048
   1.462        -22.051
   1.464        -22.055
   1.466        -22.058
   1.468        -22.062
   1.470        -22.065
   1.472        -22.068
   1.475        -22.072
   1.477        -22.075
   1.479        -22.079
   1.481        -22.082
   1.483        -22.086
   1.486        -22.089
   1.488        -22.092
   1.490        -22.095
   1.492        -22.097
   1.494        -22.100
   1.496        -22.102
   1.498        -22.105
   1.501        -22.107
   1.503        -22.110
   1.505        -22.112
   1.507        -22.115
   1.509        -22.115
   1.512        -22.115
   1.514        -22.115
   1.516        -22.116
   1.518        -22.116
   1.520        -22.116
   1.522        -22.116
   1.525        -22.116
   1.527        -22.116
   1.529        -22.115
   1.531        -22.110
   1.533        -22.105
   1.535        -22.099
   1.538        -22.094
   1.540        -22.089
   1.542        -22.084
   1.544        -22.079
   1.546        -22.074
   1.549        -22.069
   1.551        -22.060
   1.553        -22.050
   1.555        -22.040
   1.557        -22.030
   1.559        -22.020
   1.561        -22.010
   1.564        -22.000
   1.566        -21.990
   1.568        -21.980
   1.570        -21.969
   1.572        -21.954
   1.575        -21.938
   1.577        -21.923
   1.579        -21.907
   1.581        -21.892
   1.583        -21.876
   1.585        -21.861
   1.588        -21.845
   1.590        -21.964
   1.592        -22.295
   1.594        -22.299
   1.596        -22.303
   1.598        -22.307
   1.601        -22.310
   1.603        -22.315
   1.605        -22.318
   1.607        -22.322
   1.609        -22.326
   1.611        -22.331
   1.614        -22.336
   1.616        -22.342
   1.618        -22.347
   1.620        -22.353
   1.622        -22.359
   1.624        -22.364
   1.627        -22.370
   1.629        -22.376
   1.631        -22.381
   1.633        -22.388
   1.635        -22.395
   1.637        -22.403
   1.640        -22.410
   1.642        -22.417
   1.644        -22.425
   1.646        -22.432
   1.648        -22.440
   1.651        -22.447
   1.653        -22.455
   1.655        -22.465
   1.657        -22.476
   1.659        -22.487
   1.661        -22.498
   1.664        -22.509
   1.666        -22.520
   1.668        -22.531
   1.670        -22.542
   1.672        -22.553
   1.674        -22.566
   1.676        -22.587
   1.679        -22.608
   1.681        -22.629
   1.683        -22.650
   1.685        -22.671
   1.687        -22.691
   1.690        -22.712
   1.692        -22.733
   1.694        -22.755
   1.696        -22.811
   1.699        -22.909
   1.701        -22.994
   1.703        -23.073
   1.705        -23.152
   1.707        -23.237
   1.709        -23.322
   1.711        -23.407
   1.714        -23.501
   1.716        -23.518
   1.718        -23.548
   1.720        -23.578
   1.722        -23.614
   1.724        -23.651
   1.727        -23.687
   1.729        -23.724
   1.731        -23.760
   1.733        -23.796
   1.735        -23.833
   1.737        -23.865
   1.739        -23.891
   1.742        -23.917
   1.744        -23.942
   1.746        -23.968
   1.748        -23.993
   1.750        -24.019
   1.753        -24.044
   1.755        -24.070
   1.757        -24.095
   1.759        -24.110
   1.761        -24.123
   1.763        -24.136
   1.766        -24.149
   1.768        -24.162
   1.770        -24.174
   1.772        -24.187
   1.774        -24.200
   1.776        -24.213
   1.779        -24.223
   1.781        -24.229
   1.783        -24.234
   1.785        -24.239
   1.787        -24.244
   1.789        -24.248
   1.792        -24.254
   1.794        -24.259
   1.796        -24.263
   1.798        -24.268
   1.800        -24.271
   1.802        -24.273
   1.805        -24.275
   1.807        -24.277
   1.809        -24.278
   1.811        -24.280
   1.813        -24.282
   1.816        -24.284
   1.818        -24.285
   1.820        -24.287
   1.822        -24.288
   1.824        -24.289
   1.826        -24.290
   1.829        -24.290
   1.831        -24.291
   1.833        -24.292
   1.835        -24.293
   1.837        -24.294
   1.839        -24.295
   1.842        -24.295
   1.844        -24.296
   1.846        -24.296
   1.848        -24.297
   1.850        -24.297
   1.852        -24.298
   1.855        -24.299
   1.857        -24.299
   1.859        -24.299
   1.861        -24.300
   1.863        -24.301
   1.865        -24.301
   1.868        -24.301
   1.870        -24.302
   1.872        -24.302
   1.874        -24.302
   1.876        -24.303
   1.878        -24.303
   1.881        -24.304
   1.883        -24.304
   1.885        -24.304
   1.887        -24.305
   1.889        -24.305
   1.891        -24.305
   1.894        -24.305
   1.896        -24.306
   1.898        -24.307
   1.900        -24.307
   1.902        -24.307
   1.905        -24.308
   1.907        -24.308
   1.909        -24.308
   1.911        -24.308
   1.913        -24.309
   1.915        -24.309
   1.918        -24.309
   1.920        -24.310
   1.922        -24.310
   1.924        -24.310
   1.926        -24.311
   1.928        -24.311
   1.931        -24.311
   1.933        -24.312
   1.935        -24.312
   1.937        -24.312
   1.939        -24.312
   1.941        -24.312
   1.944        -24.313
   1.946        -24.313
   1.948        -24.313
   1.950        -24.314
   1.952        -24.314
   1.954        -24.314
   1.957        -24.314
   1.959        -24.315
   1.961        -24.315
   1.963        -24.315
   1.965        -24.315
   1.967        -24.316
   1.970        -24.316
   1.972        -24.316
   1.974        -24.316
   1.976        -24.316
   1.978        -24.317
   1.980        -24.317
   1.983        -24.317
   1.985        -24.317
   1.987        -24.317
   1.989        -24.318
   1.991        -24.318
   1.993        -24.318
   1.996        -24.318
   1.998        -24.318
   2.000        -24.318
   2.002        -24.318
   2.004        -24.319
   2.007        -24.319
   2.009        -24.319
   2.011        -24.319
   2.013        -24.319
   2.015        -24.319
   2.017        -24.319
   2.020        -24.319
   2.022        -24.319
   2.024        -24.319
   2.026        -24.320
   2.028        -24.319
   2.030        -24.320
   2.033        -24.320
   2.035        -24.320
   2.037        -24.320
   2.039        -24.320
   2.041        -24.320
   2.043        -24.320
   2.046        -24.320
   2.048        -24.320
   2.050        -24.320
   2.052        -24.319
   2.054        -24.319
   2.056        -24.319
   2.059        -24.319
   2.061        -24.319
   2.063        -24.319
   2.065        -24.319
   2.067        -24.319
   2.069        -24.319
   2.072        -24.319
   2.074        -24.319
   2.076        -24.319
   2.078        -24.319
   2.080        -24.319
   2.083        -24.318
   2.085        -24.318
   2.087        -24.318
   2.089        -24.318
   2.091        -24.318
   2.093        -24.318
   2.096        -24.318
   2.098        -24.318
   2.100        -24.318
   2.102        -24.318
   2.104        -24.318
   2.106        -24.318
   2.109        -24.318
   2.111        -24.318
   2.113        -24.317
   2.115        -24.317
   2.117        -24.317
   2.120        -24.316
   2.122        -24.316
   2.124        -24.315
   2.126        -24.315
   2.128        -24.314
   2.130        -24.314
   2.133        -24.314
   2.135        -24.313
   2.137        -24.313
   2.139        -24.312
   2.141        -24.312
   2.143        -24.311
   2.145        -24.310
   2.148        -24.310
   2.150        -24.309
   2.152        -24.309
   2.154        -24.308
   2.157        -24.308
   2.158        -24.307
   2.161        -24.307
   2.163        -24.306
   2.165        -24.306
   2.167        -24.305
   2.169        -24.304
   2.172        -24.304
   2.174        -24.303
   2.176        -24.302
   2.178        -24.302
   2.180        -24.301
   2.183        -24.301
   2.185        -24.300
   2.187        -24.299
   2.189        -24.298
   2.191        -24.298
   2.193        -24.297
   2.195        -24.296
   2.197        -24.295
   2.200        -24.295
   2.202        -24.294
   2.204        -24.293
   2.206        -24.292
   2.208        -24.292
   2.211        -24.291
   2.213        -24.290
   2.215        -24.289
   2.217        -24.288
   2.219        -24.288
   2.221        -24.287
   2.224        -24.286
   2.226        -24.285
   2.228        -24.284
   2.230        -24.283
   2.232        -24.282
   2.235        -24.281
   2.237        -24.281
   2.239        -24.279
   2.241        -24.279
   2.243        -24.278
   2.245        -24.276
   2.247        -24.276
   2.250        -24.275
   2.252        -24.274
   2.254        -24.273
   2.256        -24.272
   2.259        -24.271
   2.261        -24.270
   2.263        -24.269
   2.265        -24.268
   2.267        -24.266
   2.269        -24.265
   2.271        -24.264
   2.274        -24.263
   2.276        -24.262
   2.278        -24.261
   2.280        -24.260
   2.282        -24.258
   2.284        -24.257
   2.287        -24.256
   2.289        -24.255
   2.291        -24.254
   2.293        -24.253
   2.295        -24.251
   2.297        -24.250
   2.299        -24.249
   2.302        -24.248
   2.304        -24.246
   2.306        -24.245
   2.308        -24.244
   2.310        -24.242
   2.313        -24.241
   2.315        -24.240
   2.317        -24.239
   2.319        -24.237
   2.321        -24.236
   2.323        -24.235
   2.326        -24.233
   2.328        -24.232
   2.330        -24.231
   2.332        -24.229
   2.334        -24.228
   2.337        -24.227
   2.339        -24.225
   2.341        -24.224
   2.343        -24.222
   2.345        -24.221
   2.347        -24.219
   2.349        -24.218
   2.352        -24.216
   2.354        -24.215
   2.356        -24.213
   2.358        -24.212
   2.360        -24.211
   2.363        -24.209
   2.365        -24.208
   2.367        -24.206
   2.369        -24.205
   2.371        -24.203
   2.374        -24.202
   2.376        -24.200
   2.378        -24.198
   2.380        -24.197
   2.382        -24.195
   2.384        -24.194
   2.386        -24.192
   2.389        -24.191
   2.391        -24.189
   2.393        -24.188
   2.395        -24.186
   2.397        -24.185
   2.400        -24.183
   2.402        -24.182
   2.404        -24.181
   2.406        -24.180
   2.408        -24.179
   2.410        -24.179
   2.413        -24.178
   2.415        -24.177
   2.417        -24.177
   2.419        -24.176
   2.421        -24.175
   2.423        -24.174
   2.425        -24.174
   2.428        -24.173
   2.430        -24.172
   2.432        -24.172
   2.434        -24.171
   2.436        -24.170
   2.439        -24.170
   2.441        -24.169
   2.443        -24.169
   2.445        -24.168
   2.447        -24.166
   2.449        -24.165
   2.452        -24.163
   2.454        -24.162
   2.456        -24.160
   2.458        -24.159
   2.460        -24.157
   2.462        -24.156
   2.465        -24.155
   2.467        -24.153
   2.469        -24.151
   2.471        -24.150
   2.473        -24.148
   2.475        -24.147
   2.478        -24.145
   2.480        -24.143
   2.482        -24.142
   2.484        -24.140
   2.486        -24.139
   2.489        -24.137
   2.491        -24.136
   2.493        -24.134
   2.495        -24.133
   2.497        -24.131
   2.499        -24.129
   2.502        -24.128
   2.504        -24.126
   2.506        -24.125
   2.508        -24.123
   2.510        -24.122
   2.512        -24.120
   2.514        -24.119
   2.517        -24.117
   2.519        -24.116
   2.521        -24.114
   2.523        -24.113
   2.525        -24.112
   2.528        -24.110
   2.530        -24.109
   2.532        -24.107
   2.534        -24.106
   2.536        -24.105
   2.538        -24.103
   2.541        -24.102
   2.543        -24.101
   2.545        -24.099
   2.547        -24.098
   2.549        -24.097
   2.552        -24.096
   2.554        -24.094
   2.556        -24.093
   2.558        -24.092
   2.560        -24.091
   2.562        -24.090
   2.565        -24.088
   2.567        -24.087
   2.569        -24.086
   2.571        -24.085
   2.573        -24.084
   2.575        -24.083
   2.578        -24.082
   2.580        -24.081
   2.582        -24.080
   2.584        -24.079
   2.586        -24.078
   2.588        -24.077
   2.590        -24.076
   2.593        -24.075
   2.595        -24.075
   2.597        -24.074
   2.599        -24.073
   2.601        -24.072
   2.604        -24.071
   2.606        -24.071
   2.608        -24.070
   2.610        -24.069
   2.612        -24.069
   2.614        -24.069
   2.617        -24.068
   2.619        -24.068
   2.621        -24.068
   2.623        -24.068
   2.625        -24.068
   2.627        -24.068
   2.630        -24.067
   2.632        -24.068
   2.634        -24.068
   2.636        -24.069
   2.638        -24.070
   2.641        -24.071
   2.643        -24.072
   2.645        -24.073
   2.647        -24.074
   2.649        -24.075
   2.651        -24.076
   2.654        -24.078
   2.656        -24.081
   2.658        -24.084
   2.660        -24.088
   2.662        -24.091
   2.664        -24.094
   2.666        -24.098
   2.669        -24.101
   2.671        -24.104
   2.673        -24.108
   2.675        -24.113
   2.677        -24.119
   2.680        -24.125
   2.682        -24.131
   2.684        -24.138
   2.686        -24.144
   2.688        -24.150
   2.690        -24.156
   2.693        -24.162
   2.695        -24.168
   2.697        -24.175
   2.699        -24.182
   2.701        -24.189
   2.703        -24.195
   2.706        -24.202
   2.708        -24.209
   2.710        -24.215
   2.712        -24.222
   2.714        -24.229
   2.716        -24.235
   2.719        -24.241
   2.721        -24.246
   2.723        -24.252
   2.725        -24.258
   2.727        -24.264
   2.729        -24.269
   2.732        -24.275
   2.734        -24.281
   2.736        -24.287
   2.738        -24.292
   2.740        -24.297
   2.743        -24.302
   2.745        -24.307
   2.747        -24.312
   2.749        -24.318
   2.751        -24.323
   2.753        -24.328
   2.756        -24.333
   2.758        -24.338
   2.760        -24.343
   2.762        -24.348
   2.764        -24.353
   2.766        -24.358
   2.769        -24.363
   2.771        -24.368
   2.773        -24.373
   2.775        -24.378
   2.777        -24.383
   2.779        -24.387
   2.782        -24.392
   2.784        -24.397
   2.786        -24.401
   2.788        -24.406
   2.790        -24.411
   2.792        -24.415
   2.795        -24.420
   2.797        -24.424
   2.799        -24.429
   2.801        -24.434
   2.803        -24.438
   2.805        -24.442
   2.808        -24.447
   2.810        -24.451
   2.812        -24.456
   2.814        -24.460
   2.816        -24.465
   2.819        -24.469
   2.821        -24.474
   2.823        -24.478
   2.825        -24.482
   2.827        -24.486
   2.829        -24.491
   2.832        -24.495
   2.834        -24.499
   2.836        -24.503
   2.838        -24.507
   2.840        -24.511
   2.842        -24.515
   2.845        -24.519
   2.847        -24.523
   2.849        -24.527
   2.851        -24.530
   2.853        -24.534
   2.855        -24.538
   2.858        -24.542
   2.860        -24.546
   2.862        -24.549
   2.864        -24.553
   2.866        -24.556
   2.868        -24.560
   2.871        -24.563
   2.873        -24.567
   2.875        -24.570
   2.877        -24.574
   2.879        -24.577
   2.881        -24.581
   2.884        -24.584
   2.886        -24.588
   2.888        -24.591
   2.890        -24.595
   2.892        -24.598
   2.894        -24.602
   2.897        -24.605
   2.899        -24.609
   2.901        -24.612
   2.903        -24.616
   2.905        -24.619
   2.908        -24.622
   2.910        -24.625
   2.912        -24.628
   2.914        -24.631
   2.916        -24.634
   2.918        -24.637
   2.921        -24.640
   2.923        -24.643
   2.925        -24.646
   2.927        -24.649
   2.929        -24.651
   2.931        -24.654
   2.934        -24.656
   2.936        -24.659
   2.938        -24.661
   2.940        -24.664
   2.942        -24.666
   2.944        -24.669
   2.947        -24.671
   2.949        -24.673
   2.951        -24.676
   2.953        -24.678
   2.955        -24.680
   2.957        -24.682
   2.960        -24.685
   2.962        -24.687
   2.964        -24.689
   2.966        -24.691
   2.968        -24.693
   2.970        -24.695
   2.973        -24.697
   2.975        -24.700
   2.977        -24.702
   2.979        -24.704
   2.981        -24.706
   2.984        -24.708
   2.986        -24.710
   2.988        -24.712
   2.990        -24.714
   2.992        -24.716
   2.994        -24.718
   2.997        -24.719
   2.999        -24.721
   3.001        -24.723
   3.003        -24.725
   3.005        -24.727
   3.007        -24.729
   3.010        -24.731
   3.012        -24.732
   3.014        -24.734
   3.016        -24.736
   3.018        -24.737
   3.020        -24.739
   3.023        -24.741
   3.025        -24.743
   3.027        -24.744
   3.029        -24.746
   3.031        -24.748
   3.033        -24.749
   3.036        -24.751
   3.038        -24.753
   3.040        -24.755
   3.042        -24.756
   3.044        -24.758
   3.046        -24.760
   3.049        -24.761
   3.051        -24.763
   3.053        -24.765
   3.055        -24.766
   3.057        -24.768
   3.060        -24.770
   3.062        -24.771
   3.064        -24.773
   3.066        -24.775
   3.068        -24.776
   3.070        -24.778
   3.073        -24.780
   3.075        -24.781
   3.077        -24.783
   3.079        -24.785
   3.081        -24.786
   3.083        -24.788
   3.086        -24.789
   3.088        -24.791
   3.090        -24.793
   3.092        -24.794
   3.094        -24.795
   3.096        -24.797
   3.099        -24.798
   3.101        -24.800
   3.103        -24.801
   3.105        -24.803
   3.107        -24.804
   3.109        -24.806
   3.112        -24.807
   3.114        -24.809
   3.116        -24.810
   3.118        -24.811
   3.120        -24.813
   3.123        -24.814
   3.125        -24.815
   3.127        -24.817
   3.129        -24.818
   3.131        -24.819
   3.133        -24.821
   3.136        -24.822
   3.138        -24.823
   3.140        -24.824
   3.142        -24.826
   3.144        -24.827
   3.146        -24.828
   3.149        -24.830
   3.151        -24.831
   3.153        -24.833
   3.155        -24.834
   3.157        -24.835
   3.159        -24.836
   3.162        -24.838
   3.164        -24.839
   3.166        -24.840
   3.168        -24.841
   3.170        -24.842
   3.172        -24.844
   3.175        -24.845
   3.177        -24.847
   3.179        -24.848
   3.181        -24.849
   3.183        -24.850
   3.185        -24.852
   3.188        -24.853
   3.190        -24.854
   3.192        -24.855
   3.194        -24.857
   3.196        -24.858
   3.199        -24.860
   3.201        -24.861
   3.203        -24.862
   3.205        -24.864
   3.207        -24.865
   3.209        -24.867
   3.212        -24.868
   3.214        -24.869
   3.216        -24.871
   3.218        -24.872
   3.220        -24.874
   3.222        -24.875
   3.225        -24.877
   3.227        -24.878
   3.229        -24.879
   3.231        -24.881
   3.233        -24.882
   3.236        -24.884
   3.237        -24.885
   3.240        -24.887
   3.242        -24.888
   3.244        -24.889
   3.246        -24.891
   3.248        -24.892
   3.251        -24.894
   3.253        -24.895
   3.255        -24.896
   3.257        -24.897
   3.259        -24.898
   3.261        -24.899
   3.263        -24.900
   3.266        -24.901
   3.268        -24.903
   3.270        -24.904
   3.272        -24.905
   3.274        -24.905
   3.277        -24.906
   3.279        -24.907
   3.281        -24.908
   3.283        -24.908
   3.285        -24.909
   3.287        -24.910
   3.290        -24.911
   3.292        -24.911
   3.294        -24.912
   3.296        -24.912
   3.298        -24.913
   3.301        -24.914
   3.303        -24.916
   3.305        -24.917
   3.307        -24.918
   3.309        -24.920
   3.311        -24.921
   3.313        -24.922
   3.316        -24.924
   3.318        -24.925
   3.320        -24.926
   3.322        -24.928
   3.324        -24.929
   3.327        -24.930
   3.329        -24.932
   3.331        -24.933
   3.333        -24.934
   3.335        -24.936
   3.337        -24.937
   3.340        -24.938
   3.342        -24.940
   3.344        -24.941
   3.346        -24.943
   3.348        -24.944
   3.350        -24.945
   3.352        -24.946
   3.355        -24.948
   3.357        -24.949
   3.359        -24.951
   3.361        -24.952
   3.363        -24.953
   3.366        -24.955
   3.368        -24.956
   3.370        -24.957
   3.372        -24.958
   3.374        -24.960
   3.376        -24.961
   3.379        -24.962
   3.381        -24.964
   3.383        -24.965
   3.385        -24.966
   3.387        -24.967
   3.389        -24.969
   3.392        -24.970
   3.394        -24.971
   3.396        -24.972
   3.398        -24.973
   3.400        -24.975
   3.402        -24.976
   3.405        -24.977
   3.407        -24.978
   3.409        -24.979
   3.411        -24.980
   3.413        -24.981
   3.416        -24.982
   3.418        -24.984
   3.420        -24.985
   3.422        -24.986
   3.424        -24.987
   3.426        -24.988
   3.429        -24.989
   3.431        -24.990
   3.433        -24.991
   3.435        -24.993
   3.437        -24.994
   3.439        -24.995
   3.442        -24.996
   3.444        -24.997
   3.446        -24.999
   3.448        -25.000
   3.450        -25.001
   3.452        -25.002
   3.455        -25.003
   3.457        -25.004
   3.459        -25.005
   3.461        -25.006
   3.463        -25.007
   3.466        -25.009
   3.468        -25.010
   3.470        -25.011
   3.472        -25.012
   3.474        -25.013
   3.476        -25.014
   3.478        -25.015
   3.481        -25.017
   3.483        -25.018
   3.485        -25.019
   3.487        -25.020
   3.489        -25.021
   3.492        -25.022
   3.494        -25.023
   3.496        -25.024
   3.498        -25.026
   3.500        -25.027
   3.502        -25.028
   3.505        -25.029
   3.507        -25.030
   3.509        -25.031
   3.511        -25.032
   3.513        -25.033
   3.515        -25.034
   3.518        -25.035
   3.520        -25.036
   3.522        -25.037
   3.524        -25.038
   3.526        -25.039
   3.528        -25.040
   3.531        -25.041
   3.533        -25.042
   3.535        -25.043
   3.537        -25.045
   3.539        -25.046
   3.541        -25.047
   3.544        -25.048
   3.546        -25.049
   3.548        -25.050
   3.550        -25.051
   3.552        -25.052
   3.555        -25.053
   3.557        -25.054
   3.559        -25.055
   3.561        -25.056
   3.563        -25.057
   3.565        -25.058
   3.568        -25.059
   3.570        -25.060
   3.572        -25.061
   3.574        -25.062
   3.576        -25.063
   3.578        -25.064
   3.581        -25.065
   3.583        -25.066
   3.585        -25.067
   3.587        -25.068
   3.589        -25.069
   3.591        -25.070
   3.594        -25.071
   3.596        -25.072
   3.598        -25.073
   3.600        -25.074
   3.602        -25.075
   3.604        -25.076
   3.607        -25.076
   3.609        -25.077
   3.611        -25.078
   3.613        -25.079
   3.615        -25.080
   3.617        -25.081
   3.620        -25.082
   3.622        -25.083
   3.624        -25.084
   3.626        -25.085
   3.628        -25.086
   3.630        -25.087
   3.633        -25.087
   3.635        -25.088
   3.637        -25.089
   3.639        -25.090
   3.641        -25.091
   3.644        -25.092
   3.646        -25.093
   3.648        -25.093
   3.650        -25.094
   3.652        -25.095
   3.654        -25.096
   3.657        -25.097
   3.659        -25.098
   3.661        -25.099
   3.663        -25.099
   3.665        -25.100
   3.667        -25.101
   3.670        -25.102
   3.672        -25.103
   3.674        -25.103
   3.676        -25.105
   3.678        -25.105
   3.680        -25.106
   3.683        -25.107
   3.685        -25.108
   3.687        -25.109
   3.689        -25.109
   3.691        -25.110
   3.693        -25.111
   3.696        -25.112
   3.698        -25.113
   3.700        -25.113
   3.702        -25.114
   3.704        -25.115
   3.706        -25.116
   3.709        -25.117
   3.711        -25.117
   3.713        -25.118
   3.715        -25.119
   3.717        -25.120
   3.719        -25.120
   3.722        -25.121
   3.724        -25.122
   3.726        -25.123
   3.728        -25.123
   3.730        -25.124
   3.733        -25.125
   3.735        -25.126
   3.737        -25.127
   3.739        -25.128
   3.741        -25.128
   3.743        -25.129
   3.746        -25.130
   3.748        -25.131
   3.750        -25.132
   3.752        -25.132
   3.754        -25.133
   3.756        -25.134
   3.759        -25.135
   3.761        -25.136
   3.763        -25.136
   3.765        -25.137
   3.767        -25.138
   3.769        -25.139
   3.772        -25.140
   3.774        -25.141
   3.776        -25.142
   3.778        -25.143
   3.780        -25.144
   3.782        -25.146
   3.785        -25.147
   3.787        -25.148
   3.789        -25.149
   3.791        -25.151
   3.793        -25.152
   3.795        -25.153
   3.798        -25.154
   3.800        -25.157
   3.802        -25.159
   3.804        -25.162
   3.806        -25.165
   3.809        -25.167
   3.811        -25.169
   3.813        -25.172
   3.815        -25.174
   3.817        -25.177
   3.819        -25.180
   3.822        -25.183
   3.824        -25.186
   3.826        -25.189
   3.828        -25.192
   3.830        -25.196
   3.832        -25.199
   3.835        -25.202
   3.837        -25.205
   3.839        -25.208
   3.841        -25.210
   3.843        -25.212
   3.845        -25.214
   3.848        -25.216
   3.850        -25.218
   3.852        -25.220
   3.854        -25.222
   3.856        -25.224
   3.858        -25.226
   3.861        -25.228
   3.863        -25.228
   3.865        -25.229
   3.867        -25.230
   3.869        -25.230
   3.871        -25.231
   3.874        -25.232
   3.876        -25.233
   3.878        -25.234
   3.880        -25.234
   3.882        -25.235
   3.885        -25.236
   3.887        -25.236
   3.889        -25.238
   3.891        -25.238
   3.899        -25.241
   3.912        -25.246
   3.925        -25.251
   3.938        -25.255
   3.951        -25.260
   3.964        -25.264
   3.977        -25.268
   3.990        -25.272
   4.003        -25.276
   4.016        -25.280
   4.029        -25.284
   4.042        -25.288
   4.055        -25.293
   4.068        -25.296
   4.081        -25.300
   4.094        -25.304
   4.107        -25.309
   4.120        -25.313
   4.133        -25.317
   4.146        -25.321
   4.159        -25.324
   4.172        -25.327
   4.185        -25.330
   4.198        -25.333
   4.211        -25.336
   4.224        -25.339
   4.237        -25.342
   4.250        -25.345
   4.263        -25.349
   4.276        -25.353
   4.289        -25.358
   4.302        -25.363
   4.315        -25.368
   4.328        -25.374
   4.341        -25.380
   4.354        -25.387
   4.367        -25.395
   4.380        -25.403
   4.393        -25.411
   4.406        -25.420
   4.420        -25.430
   4.432        -25.440
   4.445        -25.450
   4.459        -25.461
   4.471        -25.472
   4.484        -25.483
   4.498        -25.495
   4.510        -25.507
   4.524        -25.519
   4.537        -25.531
   4.550        -25.544
   4.563        -25.557
   4.576        -25.570
   4.589        -25.583
   4.602        -25.597
   4.615        -25.611
   4.628        -25.624
   4.641        -25.639
   4.654        -25.653
   4.667        -25.667
   4.680        -25.682
   4.693        -25.696
   4.706        -25.712
   4.719        -25.727
   4.732        -25.742
   4.745        -25.757
   4.758        -25.772
   4.771        -25.788
   4.784        -25.804
   4.797        -25.820
   4.810        -25.836
   4.823        -25.852
   4.836        -25.868
   4.849        -25.885
   4.862        -25.901
   4.875        -25.918
   4.888        -25.935
   4.901        -25.952
   4.914        -25.969
   4.927        -25.986
   4.940        -26.004
   4.953        -26.022
   4.966        -26.039
   4.979        -26.058
   4.992        -26.076
   5.005        -26.094
   5.018        -26.112
   5.031        -26.131
   5.044        -26.149
   5.057        -26.168
   5.070        -26.188
   5.083        -26.206
   5.096        -26.226
   5.109        -26.245
   5.123        -26.265
   5.136        -26.284
   5.149        -26.304
   5.162        -26.324
   5.175        -26.344
   5.188        -26.364
   5.201        -26.384
   5.214        -26.404
   5.227        -26.425
   5.240        -26.445
   5.253        -26.465
   5.266        -26.485
   5.279        -26.506
   5.292        -26.526
   5.305        -26.546
   5.318        -26.566
   5.331        -26.587
   5.344        -26.607
   5.357        -26.628
   5.370        -26.648
   5.383        -26.669
   5.396        -26.690
   5.409        -26.711
   5.422        -26.733
   5.435        -26.754
   5.448        -26.776
   5.461        -26.798
   5.474        -26.820
   5.487        -26.842
   5.500        -26.865
   5.513        -26.888
   5.526        -26.911
   5.539        -26.935
   5.552        -26.958
   5.565        -26.982
   5.578        -27.006
   5.591        -27.031
   5.604        -27.056
   5.617        -27.082
   5.630        -27.107
   5.643        -27.133
   5.656        -27.159
   5.669        -27.186
   5.682        -27.213
   5.695        -27.240
   5.708        -27.268
   5.721        -27.297
   5.734        -27.326
   5.748        -27.355
   5.761        -27.385
   5.774        -27.415
   5.787        -27.446
   5.800        -27.478
   5.813        -27.509
   5.826        -27.542
   5.839        -27.575
   5.852        -27.609
   5.865        -27.643
   5.878        -27.679
   5.891        -27.715
   5.904        -27.751
   5.917        -27.788
   5.930        -27.826
   5.943        -27.865
   5.956        -27.904
   5.969        -27.944
   5.982        -27.985
   5.995        -28.028
   6.008        -28.071
   6.021        -28.114
   6.034        -28.159
   6.047        -28.204
   6.060        -28.251
   6.073        -28.299
   6.086        -28.348
   6.099        -28.399
   6.112        -28.450
   6.125        -28.502
   6.138        -28.555
   6.151        -28.610
   6.164        -28.666
   6.177        -28.724
   6.190        -28.782
   6.203        -28.842
   6.216        -28.904
   6.229        -28.967
   6.242        -29.032
   6.255        -29.098
   6.268        -29.167
   6.281        -29.237
   6.294        -29.308
   6.307        -29.380
   6.320        -29.455
   6.334        -29.532
   6.346        -29.611
   6.359        -29.691
   6.372        -29.775
   6.386        -29.860
   6.399        -29.947
   6.411        -30.037
   6.425        -30.129
   6.438        -30.225
   6.451        -30.322
   6.464        -30.420
   6.477        -30.520
   6.490        -30.625
   6.503        -30.734
   6.516        -30.844
   6.529        -30.956
   6.542        -31.073
   6.555        -31.193
   6.568        -31.315
   6.581        -31.440
   6.594        -31.571
   6.607        -31.709
   6.620        -31.846
   6.633        -31.984
   6.646        -32.124
   6.659        -32.273
   6.672        -32.426
   6.685        -32.582
   6.698        -32.742
   6.711        -32.909
   6.724        -33.080
   6.737        -33.253
   6.750        -33.428
   6.763        -33.618
   6.776        -33.817
   6.789        -34.011
   6.802        -34.205
   6.815        -34.401
   6.828        -34.616
   6.841        -34.852
   6.854        -35.138
   6.867        -35.762
   6.880        -36.816
   6.893        -40.574
