# log Energy    log Jnu
# (eV)          (ergs/s/cm2/Hz/Sr)
  -6.864        -20.213
  -6.820        -20.127
  -6.777        -20.040
  -6.734        -19.953
  -6.690        -19.866
  -6.647        -19.779
  -6.603        -19.692
  -6.560        -19.606
  -6.516        -19.519
  -6.473        -19.432
  -6.430        -19.345
  -6.386        -19.258
  -6.343        -19.171
  -6.299        -19.084
  -6.256        -18.998
  -6.212        -18.911
  -6.169        -18.824
  -6.126        -18.737
  -6.082        -18.650
  -6.039        -18.563
  -5.995        -18.477
  -5.952        -18.390
  -5.908        -18.303
  -5.865        -18.216
  -5.822        -18.129
  -5.778        -18.042
  -5.735        -17.956
  -5.691        -17.869
  -5.648        -17.782
  -5.605        -17.695
  -5.561        -17.608
  -5.518        -17.522
  -5.474        -17.435
  -5.431        -17.348
  -5.387        -17.261
  -5.344        -17.174
  -5.300        -17.087
  -5.257        -17.001
  -5.214        -16.914
  -5.170        -16.827
  -5.127        -16.740
  -5.083        -16.654
  -5.040        -16.567
  -4.996        -16.480
  -4.953        -16.394
  -4.910        -16.307
  -4.866        -16.220
  -4.823        -16.134
  -4.779        -16.047
  -4.736        -15.960
  -4.692        -15.874
  -4.649        -15.788
  -4.606        -15.701
  -4.562        -15.615
  -4.519        -15.528
  -4.475        -15.442
  -4.432        -15.356
  -4.388        -15.270
  -4.345        -15.183
  -4.302        -15.097
  -4.258        -15.011
  -4.215        -14.925
  -4.171        -14.840
  -4.128        -14.754
  -4.084        -14.668
  -4.041        -14.583
  -3.998        -14.498
  -3.954        -14.413
  -3.911        -14.328
  -3.867        -14.243
  -3.824        -14.159
  -3.781        -14.075
  -3.737        -13.991
  -3.693        -13.907
  -3.650        -13.824
  -3.607        -13.742
  -3.584        -13.703
  -3.582        -13.692
  -3.580        -13.691
  -3.577        -13.687
  -3.575        -13.683
  -3.573        -13.679
  -3.571        -13.675
  -3.569        -13.671
  -3.567        -13.667
  -3.564        -13.662
  -3.562        -13.659
  -3.560        -13.654
  -3.558        -13.650
  -3.556        -13.646
  -3.554        -13.642
  -3.551        -13.638
  -3.549        -13.634
  -3.547        -13.630
  -3.545        -13.626
  -3.543        -13.622
  -3.540        -13.617
  -3.538        -13.613
  -3.536        -13.609
  -3.534        -13.605
  -3.532        -13.601
  -3.530        -13.597
  -3.528        -13.593
  -3.525        -13.589
  -3.523        -13.585
  -3.521        -13.581
  -3.519        -13.577
  -3.517        -13.573
  -3.514        -13.569
  -3.512        -13.564
  -3.510        -13.560
  -3.508        -13.556
  -3.506        -13.552
  -3.504        -13.548
  -3.502        -13.544
  -3.499        -13.540
  -3.497        -13.536
  -3.495        -13.532
  -3.493        -13.528
  -3.491        -13.524
  -3.488        -13.520
  -3.486        -13.516
  -3.484        -13.511
  -3.482        -13.507
  -3.480        -13.503
  -3.477        -13.499
  -3.475        -13.495
  -3.473        -13.491
  -3.471        -13.487
  -3.469        -13.483
  -3.467        -13.479
  -3.464        -13.475
  -3.462        -13.471
  -3.460        -13.467
  -3.458        -13.463
  -3.456        -13.459
  -3.454        -13.455
  -3.451        -13.451
  -3.449        -13.447
  -3.447        -13.443
  -3.445        -13.439
  -3.443        -13.435
  -3.441        -13.431
  -3.438        -13.427
  -3.436        -13.423
  -3.434        -13.419
  -3.432        -13.415
  -3.430        -13.411
  -3.428        -13.407
  -3.425        -13.403
  -3.423        -13.399
  -3.421        -13.395
  -3.419        -13.391
  -3.417        -13.386
  -3.415        -13.382
  -3.412        -13.379
  -3.410        -13.374
  -3.408        -13.371
  -3.406        -13.366
  -3.404        -13.362
  -3.402        -13.358
  -3.399        -13.355
  -3.397        -13.351
  -3.395        -13.346
  -3.393        -13.343
  -3.391        -13.339
  -3.389        -13.335
  -3.386        -13.331
  -3.384        -13.327
  -3.382        -13.323
  -3.380        -13.319
  -3.378        -13.315
  -3.376        -13.311
  -3.373        -13.307
  -3.371        -13.303
  -3.369        -13.299
  -3.367        -13.295
  -3.365        -13.291
  -3.362        -13.287
  -3.360        -13.283
  -3.358        -13.279
  -3.356        -13.275
  -3.354        -13.271
  -3.352        -13.267
  -3.349        -13.263
  -3.347        -13.259
  -3.345        -13.255
  -3.343        -13.251
  -3.341        -13.247
  -3.339        -13.243
  -3.336        -13.240
  -3.334        -13.236
  -3.332        -13.232
  -3.330        -13.228
  -3.328        -13.224
  -3.326        -13.220
  -3.323        -13.216
  -3.321        -13.212
  -3.319        -13.208
  -3.317        -13.204
  -3.315        -13.200
  -3.313        -13.196
  -3.310        -13.192
  -3.308        -13.189
  -3.306        -13.185
  -3.304        -13.181
  -3.302        -13.177
  -3.300        -13.173
  -3.297        -13.169
  -3.295        -13.165
  -3.293        -13.162
  -3.291        -13.158
  -3.289        -13.153
  -3.287        -13.150
  -3.284        -13.146
  -3.282        -13.142
  -3.280        -13.138
  -3.278        -13.134
  -3.276        -13.130
  -3.273        -13.126
  -3.271        -13.123
  -3.269        -13.119
  -3.267        -13.115
  -3.265        -13.111
  -3.263        -13.107
  -3.260        -13.103
  -3.258        -13.099
  -3.256        -13.096
  -3.254        -13.092
  -3.252        -13.088
  -3.250        -13.084
  -3.247        -13.080
  -3.245        -13.076
  -3.243        -13.073
  -3.241        -13.069
  -3.239        -13.065
  -3.237        -13.061
  -3.234        -13.057
  -3.232        -13.053
  -3.230        -13.050
  -3.228        -13.046
  -3.226        -13.042
  -3.224        -13.038
  -3.221        -13.034
  -3.219        -13.031
  -3.217        -13.027
  -3.215        -13.023
  -3.213        -13.019
  -3.211        -13.015
  -3.208        -13.012
  -3.206        -13.008
  -3.204        -13.004
  -3.202        -13.000
  -3.200        -12.997
  -3.197        -12.993
  -3.195        -12.989
  -3.193        -12.985
  -3.191        -12.981
  -3.189        -12.978
  -3.187        -12.974
  -3.184        -12.970
  -3.182        -12.966
  -3.180        -12.963
  -3.178        -12.959
  -3.176        -12.955
  -3.174        -12.951
  -3.171        -12.948
  -3.169        -12.944
  -3.167        -12.940
  -3.165        -12.936
  -3.163        -12.933
  -3.161        -12.929
  -3.158        -12.925
  -3.156        -12.922
  -3.154        -12.918
  -3.152        -12.914
  -3.150        -12.910
  -3.148        -12.907
  -3.145        -12.903
  -3.143        -12.899
  -3.141        -12.896
  -3.139        -12.892
  -3.137        -12.888
  -3.135        -12.885
  -3.132        -12.881
  -3.130        -12.877
  -3.128        -12.874
  -3.126        -12.870
  -3.124        -12.866
  -3.122        -12.863
  -3.119        -12.859
  -3.117        -12.855
  -3.115        -12.852
  -3.113        -12.848
  -3.111        -12.844
  -3.108        -12.841
  -3.106        -12.837
  -3.104        -12.834
  -3.102        -12.830
  -3.100        -12.826
  -3.098        -12.823
  -3.095        -12.819
  -3.093        -12.816
  -3.091        -12.812
  -3.089        -12.808
  -3.087        -12.805
  -3.085        -12.801
  -3.082        -12.798
  -3.080        -12.794
  -3.078        -12.790
  -3.076        -12.787
  -3.074        -12.783
  -3.072        -12.780
  -3.069        -12.776
  -3.067        -12.773
  -3.065        -12.769
  -3.063        -12.766
  -3.061        -12.762
  -3.059        -12.759
  -3.056        -12.755
  -3.054        -12.752
  -3.052        -12.748
  -3.050        -12.744
  -3.048        -12.741
  -3.046        -12.737
  -3.043        -12.734
  -3.041        -12.730
  -3.039        -12.727
  -3.037        -12.723
  -3.035        -12.720
  -3.032        -12.717
  -3.030        -12.713
  -3.028        -12.710
  -3.026        -12.706
  -3.024        -12.703
  -3.022        -12.699
  -3.019        -12.696
  -3.017        -12.692
  -3.015        -12.689
  -3.013        -12.685
  -3.011        -12.682
  -3.009        -12.679
  -3.006        -12.675
  -3.004        -12.672
  -3.002        -12.668
  -3.000        -12.665
  -2.998        -12.661
  -2.996        -12.658
  -2.993        -12.655
  -2.991        -12.651
  -2.989        -12.648
  -2.987        -12.645
  -2.985        -12.641
  -2.983        -12.638
  -2.980        -12.634
  -2.978        -12.631
  -2.976        -12.628
  -2.974        -12.624
  -2.972        -12.621
  -2.970        -12.618
  -2.967        -12.614
  -2.965        -12.611
  -2.963        -12.608
  -2.961        -12.605
  -2.959        -12.601
  -2.956        -12.598
  -2.954        -12.595
  -2.952        -12.591
  -2.950        -12.588
  -2.948        -12.585
  -2.946        -12.582
  -2.944        -12.578
  -2.941        -12.575
  -2.939        -12.572
  -2.937        -12.569
  -2.935        -12.565
  -2.933        -12.562
  -2.930        -12.559
  -2.928        -12.556
  -2.926        -12.552
  -2.924        -12.549
  -2.922        -12.546
  -2.920        -12.543
  -2.917        -12.540
  -2.915        -12.536
  -2.913        -12.533
  -2.911        -12.530
  -2.909        -12.527
  -2.907        -12.524
  -2.904        -12.521
  -2.902        -12.517
  -2.900        -12.514
  -2.898        -12.511
  -2.896        -12.508
  -2.894        -12.505
  -2.891        -12.502
  -2.889        -12.499
  -2.887        -12.496
  -2.885        -12.493
  -2.883        -12.490
  -2.880        -12.487
  -2.878        -12.483
  -2.876        -12.480
  -2.874        -12.477
  -2.872        -12.474
  -2.870        -12.471
  -2.867        -12.469
  -2.865        -12.465
  -2.863        -12.462
  -2.861        -12.459
  -2.859        -12.456
  -2.857        -12.453
  -2.855        -12.450
  -2.852        -12.447
  -2.850        -12.444
  -2.848        -12.442
  -2.846        -12.438
  -2.843        -12.436
  -2.842        -12.433
  -2.839        -12.430
  -2.837        -12.427
  -2.835        -12.424
  -2.833        -12.421
  -2.831        -12.418
  -2.828        -12.415
  -2.826        -12.413
  -2.824        -12.409
  -2.822        -12.407
  -2.820        -12.404
  -2.817        -12.401
  -2.815        -12.398
  -2.813        -12.396
  -2.811        -12.393
  -2.809        -12.390
  -2.807        -12.387
  -2.805        -12.384
  -2.802        -12.382
  -2.800        -12.379
  -2.798        -12.376
  -2.796        -12.373
  -2.794        -12.370
  -2.792        -12.368
  -2.789        -12.365
  -2.787        -12.362
  -2.785        -12.360
  -2.783        -12.357
  -2.781        -12.354
  -2.779        -12.352
  -2.776        -12.349
  -2.774        -12.346
  -2.772        -12.344
  -2.770        -12.341
  -2.767        -12.339
  -2.765        -12.336
  -2.763        -12.333
  -2.761        -12.331
  -2.759        -12.328
  -2.757        -12.326
  -2.754        -12.323
  -2.753        -12.320
  -2.750        -12.318
  -2.748        -12.315
  -2.746        -12.313
  -2.744        -12.310
  -2.741        -12.308
  -2.739        -12.305
  -2.737        -12.303
  -2.735        -12.300
  -2.733        -12.298
  -2.731        -12.295
  -2.729        -12.293
  -2.726        -12.290
  -2.724        -12.288
  -2.722        -12.286
  -2.720        -12.283
  -2.718        -12.281
  -2.716        -12.279
  -2.713        -12.276
  -2.711        -12.274
  -2.709        -12.272
  -2.707        -12.269
  -2.705        -12.267
  -2.703        -12.265
  -2.700        -12.263
  -2.698        -12.260
  -2.696        -12.258
  -2.694        -12.256
  -2.692        -12.254
  -2.689        -12.251
  -2.687        -12.249
  -2.685        -12.247
  -2.683        -12.245
  -2.681        -12.243
  -2.679        -12.240
  -2.677        -12.238
  -2.674        -12.236
  -2.672        -12.234
  -2.670        -12.232
  -2.668        -12.230
  -2.666        -12.228
  -2.663        -12.226
  -2.661        -12.224
  -2.659        -12.222
  -2.657        -12.220
  -2.655        -12.218
  -2.653        -12.216
  -2.650        -12.214
  -2.648        -12.212
  -2.646        -12.210
  -2.644        -12.208
  -2.642        -12.206
  -2.640        -12.204
  -2.637        -12.202
  -2.635        -12.200
  -2.633        -12.199
  -2.631        -12.197
  -2.629        -12.195
  -2.626        -12.193
  -2.624        -12.191
  -2.622        -12.189
  -2.620        -12.188
  -2.618        -12.186
  -2.616        -12.184
  -2.614        -12.182
  -2.611        -12.181
  -2.609        -12.179
  -2.607        -12.177
  -2.605        -12.176
  -2.603        -12.174
  -2.600        -12.172
  -2.598        -12.171
  -2.596        -12.169
  -2.594        -12.168
  -2.592        -12.166
  -2.590        -12.165
  -2.587        -12.163
  -2.585        -12.162
  -2.583        -12.160
  -2.581        -12.159
  -2.579        -12.157
  -2.577        -12.156
  -2.574        -12.154
  -2.572        -12.153
  -2.570        -12.151
  -2.568        -12.150
  -2.566        -12.149
  -2.564        -12.147
  -2.561        -12.146
  -2.559        -12.145
  -2.557        -12.144
  -2.555        -12.142
  -2.553        -12.141
  -2.551        -12.140
  -2.548        -12.139
  -2.546        -12.137
  -2.544        -12.136
  -2.542        -12.135
  -2.540        -12.134
  -2.538        -12.133
  -2.535        -12.132
  -2.533        -12.131
  -2.531        -12.130
  -2.529        -12.129
  -2.527        -12.128
  -2.525        -12.127
  -2.522        -12.126
  -2.520        -12.125
  -2.518        -12.124
  -2.516        -12.123
  -2.514        -12.122
  -2.511        -12.121
  -2.509        -12.120
  -2.507        -12.120
  -2.505        -12.119
  -2.503        -12.118
  -2.501        -12.117
  -2.498        -12.117
  -2.496        -12.116
  -2.494        -12.115
  -2.492        -12.115
  -2.490        -12.114
  -2.488        -12.113
  -2.485        -12.113
  -2.483        -12.112
  -2.481        -12.112
  -2.479        -12.111
  -2.477        -12.111
  -2.475        -12.110
  -2.472        -12.110
  -2.470        -12.109
  -2.468        -12.109
  -2.466        -12.109
  -2.464        -12.108
  -2.462        -12.108
  -2.459        -12.108
  -2.457        -12.107
  -2.455        -12.107
  -2.453        -12.107
  -2.451        -12.107
  -2.448        -12.107
  -2.446        -12.106
  -2.444        -12.106
  -2.442        -12.106
  -2.440        -12.106
  -2.438        -12.106
  -2.435        -12.106
  -2.433        -12.106
  -2.431        -12.106
  -2.429        -12.106
  -2.427        -12.106
  -2.425        -12.106
  -2.422        -12.106
  -2.420        -12.107
  -2.418        -12.107
  -2.416        -12.107
  -2.414        -12.107
  -2.412        -12.108
  -2.409        -12.108
  -2.407        -12.108
  -2.405        -12.109
  -2.403        -12.109
  -2.401        -12.109
  -2.398        -12.110
  -2.396        -12.110
  -2.394        -12.111
  -2.392        -12.111
  -2.390        -12.112
  -2.388        -12.113
  -2.386        -12.113
  -2.383        -12.114
  -2.381        -12.115
  -2.379        -12.115
  -2.377        -12.116
  -2.375        -12.117
  -2.372        -12.118
  -2.370        -12.119
  -2.368        -12.120
  -2.366        -12.121
  -2.364        -12.122
  -2.362        -12.122
  -2.359        -12.123
  -2.357        -12.125
  -2.355        -12.126
  -2.353        -12.127
  -2.351        -12.128
  -2.349        -12.129
  -2.346        -12.130
  -2.344        -12.132
  -2.342        -12.133
  -2.340        -12.134
  -2.338        -12.135
  -2.336        -12.137
  -2.333        -12.139
  -2.331        -12.140
  -2.329        -12.142
  -2.327        -12.143
  -2.325        -12.145
  -2.323        -12.146
  -2.320        -12.148
  -2.318        -12.150
  -2.316        -12.151
  -2.314        -12.153
  -2.312        -12.155
  -2.309        -12.157
  -2.307        -12.159
  -2.305        -12.160
  -2.303        -12.162
  -2.301        -12.164
  -2.299        -12.167
  -2.297        -12.168
  -2.294        -12.170
  -2.292        -12.173
  -2.290        -12.175
  -2.288        -12.177
  -2.286        -12.180
  -2.283        -12.182
  -2.281        -12.184
  -2.279        -12.186
  -2.277        -12.189
  -2.275        -12.191
  -2.273        -12.194
  -2.270        -12.196
  -2.268        -12.199
  -2.266        -12.202
  -2.264        -12.205
  -2.262        -12.207
  -2.260        -12.210
  -2.257        -12.213
  -2.255        -12.216
  -2.253        -12.218
  -2.251        -12.221
  -2.249        -12.224
  -2.247        -12.227
  -2.244        -12.231
  -2.242        -12.234
  -2.240        -12.237
  -2.238        -12.240
  -2.236        -12.243
  -2.234        -12.247
  -2.231        -12.250
  -2.229        -12.254
  -2.227        -12.257
  -2.225        -12.261
  -2.223        -12.264
  -2.220        -12.268
  -2.218        -12.271
  -2.216        -12.275
  -2.214        -12.279
  -2.212        -12.283
  -2.210        -12.286
  -2.207        -12.290
  -2.205        -12.294
  -2.203        -12.298
  -2.201        -12.302
  -2.199        -12.306
  -2.197        -12.311
  -2.194        -12.315
  -2.192        -12.319
  -2.190        -12.323
  -2.188        -12.328
  -2.186        -12.332
  -2.184        -12.337
  -2.181        -12.341
  -2.179        -12.346
  -2.177        -12.350
  -2.175        -12.355
  -2.173        -12.360
  -2.171        -12.364
  -2.168        -12.369
  -2.166        -12.374
  -2.164        -12.379
  -2.162        -12.384
  -2.160        -12.389
  -2.158        -12.394
  -2.155        -12.400
  -2.153        -12.405
  -2.151        -12.410
  -2.149        -12.415
  -2.147        -12.421
  -2.145        -12.426
  -2.142        -12.432
  -2.140        -12.437
  -2.138        -12.443
  -2.136        -12.449
  -2.134        -12.454
  -2.131        -12.460
  -2.129        -12.466
  -2.127        -12.472
  -2.125        -12.478
  -2.123        -12.484
  -2.121        -12.490
  -2.118        -12.497
  -2.116        -12.503
  -2.114        -12.509
  -2.112        -12.515
  -2.110        -12.522
  -2.108        -12.528
  -2.105        -12.535
  -2.103        -12.542
  -2.101        -12.548
  -2.099        -12.555
  -2.097        -12.562
  -2.095        -12.569
  -2.092        -12.576
  -2.090        -12.583
  -2.088        -12.590
  -2.086        -12.597
  -2.084        -12.604
  -2.082        -12.612
  -2.079        -12.619
  -2.077        -12.626
  -2.075        -12.634
  -2.073        -12.642
  -2.071        -12.649
  -2.069        -12.657
  -2.066        -12.665
  -2.064        -12.673
  -2.062        -12.680
  -2.060        -12.688
  -2.058        -12.697
  -2.056        -12.705
  -2.053        -12.713
  -2.051        -12.721
  -2.049        -12.730
  -2.047        -12.738
  -2.045        -12.747
  -2.043        -12.755
  -2.040        -12.764
  -2.038        -12.773
  -2.036        -12.781
  -2.034        -12.790
  -2.032        -12.799
  -2.029        -12.808
  -2.027        -12.817
  -2.025        -12.827
  -2.023        -12.836
  -2.021        -12.845
  -2.019        -12.855
  -2.016        -12.864
  -2.014        -12.874
  -2.012        -12.884
  -2.010        -12.893
  -2.008        -12.903
  -2.006        -12.913
  -2.003        -12.923
  -2.001        -12.933
  -1.999        -12.943
  -1.997        -12.954
  -1.995        -12.964
  -1.993        -12.974
  -1.990        -12.985
  -1.988        -12.995
  -1.986        -13.006
  -1.984        -13.017
  -1.982        -13.028
  -1.980        -13.039
  -1.977        -13.050
  -1.975        -13.061
  -1.973        -13.072
  -1.971        -13.083
  -1.969        -13.095
  -1.967        -13.106
  -1.964        -13.118
  -1.962        -13.129
  -1.960        -13.141
  -1.958        -13.153
  -1.956        -13.165
  -1.953        -13.177
  -1.951        -13.189
  -1.949        -13.201
  -1.947        -13.213
  -1.945        -13.226
  -1.943        -13.238
  -1.940        -13.251
  -1.938        -13.264
  -1.936        -13.276
  -1.934        -13.289
  -1.932        -13.302
  -1.930        -13.315
  -1.927        -13.328
  -1.925        -13.342
  -1.923        -13.355
  -1.921        -13.368
  -1.919        -13.382
  -1.917        -13.396
  -1.914        -13.409
  -1.912        -13.423
  -1.910        -13.437
  -1.908        -13.451
  -1.906        -13.465
  -1.904        -13.480
  -1.901        -13.494
  -1.899        -13.509
  -1.897        -13.523
  -1.895        -13.538
  -1.893        -13.553
  -1.891        -13.568
  -1.888        -13.583
  -1.886        -13.598
  -1.884        -13.613
  -1.882        -13.628
  -1.880        -13.644
  -1.877        -13.659
  -1.875        -13.675
  -1.873        -13.691
  -1.871        -13.706
  -1.869        -13.723
  -1.867        -13.739
  -1.864        -13.755
  -1.862        -13.771
  -1.860        -13.788
  -1.858        -13.804
  -1.856        -13.821
  -1.853        -13.838
  -1.851        -13.855
  -1.849        -13.872
  -1.847        -13.889
  -1.845        -13.906
  -1.843        -13.924
  -1.841        -13.941
  -1.838        -13.959
  -1.836        -13.977
  -1.834        -13.994
  -1.832        -14.012
  -1.830        -14.030
  -1.828        -14.049
  -1.825        -14.067
  -1.823        -14.086
  -1.821        -14.104
  -1.819        -14.123
  -1.817        -14.142
  -1.815        -14.161
  -1.812        -14.180
  -1.810        -14.199
  -1.808        -14.218
  -1.806        -14.238
  -1.804        -14.258
  -1.801        -14.277
  -1.799        -14.297
  -1.797        -14.317
  -1.795        -14.337
  -1.793        -14.358
  -1.791        -14.378
  -1.788        -14.399
  -1.786        -14.419
  -1.784        -14.441
  -1.782        -14.461
  -1.780        -14.482
  -1.777        -14.504
  -1.775        -14.525
  -1.773        -14.547
  -1.771        -14.568
  -1.769        -14.590
  -1.767        -14.612
  -1.764        -14.634
  -1.763        -14.656
  -1.760        -14.679
  -1.758        -14.701
  -1.756        -14.724
  -1.754        -14.747
  -1.752        -14.770
  -1.749        -14.793
  -1.747        -14.816
  -1.745        -14.840
  -1.743        -14.863
  -1.741        -14.887
  -1.739        -14.911
  -1.736        -14.935
  -1.734        -14.959
  -1.732        -14.983
  -1.730        -15.008
  -1.728        -15.032
  -1.726        -15.057
  -1.723        -15.082
  -1.721        -15.107
  -1.719        -15.132
  -1.717        -15.158
  -1.715        -15.183
  -1.713        -15.209
  -1.710        -15.235
  -1.708        -15.261
  -1.706        -15.287
  -1.704        -15.314
  -1.702        -15.340
  -1.699        -15.367
  -1.697        -15.394
  -1.695        -15.421
  -1.693        -15.448
  -1.691        -15.476
  -1.689        -15.503
  -1.686        -15.531
  -1.684        -15.559
  -1.682        -15.587
  -1.680        -15.615
  -1.678        -15.643
  -1.675        -15.672
  -1.673        -15.701
  -1.671        -15.730
  -1.669        -15.759
  -1.667        -15.788
  -1.665        -15.818
  -1.663        -15.848
  -1.660        -15.877
  -1.658        -15.907
  -1.656        -15.938
  -1.654        -15.968
  -1.652        -15.998
  -1.650        -16.029
  -1.647        -16.060
  -1.645        -16.091
  -1.643        -16.123
  -1.641        -16.154
  -1.639        -16.186
  -1.637        -16.218
  -1.634        -16.250
  -1.632        -16.282
  -1.630        -16.315
  -1.628        -16.347
  -1.626        -16.380
  -1.623        -16.413
  -1.621        -16.446
  -1.619        -16.480
  -1.617        -16.513
  -1.615        -16.547
  -1.613        -16.581
  -1.611        -16.615
  -1.608        -16.650
  -1.606        -16.684
  -1.604        -16.719
  -1.602        -16.754
  -1.600        -16.789
  -1.597        -16.825
  -1.595        -16.860
  -1.593        -16.896
  -1.591        -16.932
  -1.589        -16.968
  -1.587        -17.004
  -1.584        -17.041
  -1.582        -17.077
  -1.580        -17.114
  -1.578        -17.151
  -1.576        -17.188
  -1.573        -17.226
  -1.571        -17.263
  -1.569        -17.301
  -1.567        -17.339
  -1.565        -17.377
  -1.563        -17.416
  -1.561        -17.454
  -1.558        -17.493
  -1.556        -17.531
  -1.554        -17.570
  -1.552        -17.609
  -1.550        -17.648
  -1.547        -17.688
  -1.545        -17.726
  -1.543        -17.766
  -1.541        -17.805
  -1.539        -17.845
  -1.537        -17.884
  -1.534        -17.924
  -1.532        -17.963
  -1.530        -18.003
  -1.528        -18.042
  -1.526        -18.081
  -1.524        -18.120
  -1.522        -18.159
  -1.519        -18.198
  -1.517        -18.237
  -1.515        -18.275
  -1.513        -18.313
  -1.511        -18.350
  -1.508        -18.388
  -1.506        -18.424
  -1.504        -18.460
  -1.502        -18.496
  -1.500        -18.531
  -1.498        -18.565
  -1.495        -18.598
  -1.493        -18.631
  -1.491        -18.662
  -1.489        -18.693
  -1.487        -18.722
  -1.484        -18.751
  -1.482        -18.779
  -1.480        -18.805
  -1.478        -18.830
  -1.476        -18.854
  -1.474        -18.877
  -1.472        -18.898
  -1.469        -18.919
  -1.467        -18.938
  -1.465        -18.956
  -1.463        -18.972
  -1.461        -18.988
  -1.458        -19.002
  -1.456        -19.016
  -1.454        -19.028
  -1.452        -19.039
  -1.450        -19.050
  -1.448        -19.059
  -1.445        -19.068
  -1.443        -19.076
  -1.441        -19.084
  -1.439        -19.091
  -1.437        -19.097
  -1.435        -19.102
  -1.432        -19.107
  -1.430        -19.112
  -1.428        -19.116
  -1.426        -19.120
  -1.424        -19.124
  -1.422        -19.127
  -1.419        -19.130
  -1.417        -19.133
  -1.415        -19.135
  -1.413        -19.138
  -1.411        -19.140
  -1.409        -19.142
  -1.406        -19.143
  -1.404        -19.145
  -1.402        -19.147
  -1.400        -19.148
  -1.398        -19.150
  -1.396        -19.151
  -1.393        -19.152
  -1.391        -19.153
  -1.389        -19.154
  -1.387        -19.156
  -1.385        -19.156
  -1.383        -19.158
  -1.380        -19.158
  -1.378        -19.159
  -1.376        -19.160
  -1.374        -19.161
  -1.372        -19.162
  -1.370        -19.163
  -1.367        -19.164
  -1.365        -19.165
  -1.363        -19.165
  -1.361        -19.166
  -1.359        -19.167
  -1.356        -19.168
  -1.354        -19.168
  -1.352        -19.169
  -1.350        -19.170
  -1.348        -19.171
  -1.346        -19.172
  -1.343        -19.172
  -1.341        -19.173
  -1.339        -19.174
  -1.337        -19.175
  -1.335        -19.175
  -1.333        -19.176
  -1.330        -19.177
  -1.328        -19.177
  -1.326        -19.178
  -1.324        -19.179
  -1.322        -19.179
  -1.320        -19.180
  -1.317        -19.181
  -1.315        -19.182
  -1.313        -19.182
  -1.311        -19.183
  -1.309        -19.184
  -1.307        -19.184
  -1.304        -19.185
  -1.302        -19.186
  -1.300        -19.186
  -1.298        -19.187
  -1.296        -19.188
  -1.293        -19.188
  -1.291        -19.189
  -1.289        -19.190
  -1.287        -19.191
  -1.285        -19.191
  -1.283        -19.192
  -1.280        -19.192
  -1.278        -19.193
  -1.276        -19.194
  -1.274        -19.194
  -1.272        -19.195
  -1.270        -19.196
  -1.267        -19.197
  -1.265        -19.197
  -1.263        -19.198
  -1.261        -19.198
  -1.259        -19.199
  -1.257        -19.200
  -1.254        -19.200
  -1.252        -19.201
  -1.250        -19.202
  -1.248        -19.202
  -1.246        -19.203
  -1.243        -19.203
  -1.241        -19.204
  -1.239        -19.205
  -1.237        -19.205
  -1.235        -19.206
  -1.233        -19.207
  -1.231        -19.207
  -1.228        -19.208
  -1.226        -19.208
  -1.224        -19.209
  -1.222        -19.210
  -1.220        -19.210
  -1.217        -19.211
  -1.215        -19.212
  -1.213        -19.212
  -1.211        -19.213
  -1.209        -19.214
  -1.207        -19.214
  -1.204        -19.215
  -1.202        -19.216
  -1.200        -19.216
  -1.198        -19.217
  -1.196        -19.218
  -1.194        -19.218
  -1.191        -19.219
  -1.189        -19.219
  -1.187        -19.220
  -1.185        -19.221
  -1.183        -19.221
  -1.181        -19.222
  -1.178        -19.223
  -1.176        -19.223
  -1.174        -19.224
  -1.172        -19.225
  -1.170        -19.226
  -1.168        -19.226
  -1.165        -19.227
  -1.163        -19.227
  -1.161        -19.228
  -1.159        -19.229
  -1.157        -19.229
  -1.155        -19.230
  -1.152        -19.231
  -1.150        -19.232
  -1.148        -19.233
  -1.146        -19.233
  -1.144        -19.234
  -1.142        -19.235
  -1.139        -19.235
  -1.137        -19.236
  -1.135        -19.237
  -1.133        -19.238
  -1.131        -19.238
  -1.129        -19.239
  -1.126        -19.240
  -1.124        -19.241
  -1.122        -19.241
  -1.120        -19.242
  -1.118        -19.243
  -1.115        -19.244
  -1.113        -19.245
  -1.111        -19.245
  -1.109        -19.246
  -1.107        -19.247
  -1.105        -19.248
  -1.102        -19.249
  -1.100        -19.250
  -1.098        -19.250
  -1.096        -19.251
  -1.094        -19.252
  -1.092        -19.253
  -1.089        -19.254
  -1.087        -19.255
  -1.085        -19.256
  -1.083        -19.257
  -1.081        -19.258
  -1.079        -19.259
  -1.076        -19.260
  -1.074        -19.260
  -1.072        -19.262
  -1.070        -19.263
  -1.068        -19.264
  -1.066        -19.265
  -1.063        -19.266
  -1.061        -19.267
  -1.059        -19.268
  -1.057        -19.269
  -1.055        -19.270
  -1.052        -19.271
  -1.050        -19.272
  -1.048        -19.274
  -1.046        -19.275
  -1.044        -19.276
  -1.042        -19.278
  -1.039        -19.279
  -1.037        -19.280
  -1.035        -19.281
  -1.033        -19.283
  -1.031        -19.284
  -1.029        -19.286
  -1.026        -19.287
  -1.024        -19.288
  -1.022        -19.290
  -1.020        -19.291
  -1.018        -19.293
  -1.016        -19.294
  -1.013        -19.296
  -1.011        -19.297
  -1.009        -19.299
  -1.007        -19.301
  -1.005        -19.302
  -1.003        -19.304
  -1.000        -19.305
  -0.998        -19.307
  -0.996        -19.309
  -0.994        -19.310
  -0.992        -19.312
  -0.990        -19.314
  -0.987        -19.315
  -0.985        -19.316
  -0.983        -19.318
  -0.981        -19.320
  -0.979        -19.321
  -0.977        -19.323
  -0.974        -19.324
  -0.972        -19.326
  -0.970        -19.327
  -0.968        -19.329
  -0.966        -19.330
  -0.963        -19.332
  -0.961        -19.333
  -0.959        -19.334
  -0.957        -19.336
  -0.955        -19.337
  -0.953        -19.339
  -0.950        -19.340
  -0.948        -19.341
  -0.946        -19.342
  -0.944        -19.344
  -0.942        -19.345
  -0.940        -19.346
  -0.937        -19.347
  -0.935        -19.348
  -0.933        -19.350
  -0.931        -19.351
  -0.929        -19.352
  -0.927        -19.353
  -0.924        -19.354
  -0.922        -19.355
  -0.920        -19.356
  -0.918        -19.357
  -0.916        -19.358
  -0.914        -19.359
  -0.911        -19.360
  -0.909        -19.361
  -0.907        -19.362
  -0.905        -19.363
  -0.903        -19.364
  -0.900        -19.365
  -0.898        -19.366
  -0.896        -19.367
  -0.894        -19.368
  -0.892        -19.368
  -0.890        -19.369
  -0.887        -19.370
  -0.885        -19.371
  -0.883        -19.372
  -0.881        -19.373
  -0.879        -19.373
  -0.877        -19.374
  -0.874        -19.375
  -0.872        -19.375
  -0.870        -19.376
  -0.868        -19.377
  -0.866        -19.377
  -0.864        -19.378
  -0.862        -19.378
  -0.859        -19.379
  -0.857        -19.380
  -0.855        -19.380
  -0.853        -19.381
  -0.851        -19.381
  -0.848        -19.382
  -0.846        -19.382
  -0.844        -19.383
  -0.842        -19.383
  -0.840        -19.383
  -0.838        -19.384
  -0.835        -19.384
  -0.833        -19.384
  -0.831        -19.384
  -0.829        -19.385
  -0.827        -19.385
  -0.825        -19.385
  -0.822        -19.385
  -0.820        -19.385
  -0.818        -19.386
  -0.816        -19.385
  -0.814        -19.385
  -0.812        -19.385
  -0.809        -19.385
  -0.807        -19.385
  -0.805        -19.385
  -0.803        -19.385
  -0.801        -19.385
  -0.799        -19.384
  -0.796        -19.384
  -0.794        -19.384
  -0.792        -19.384
  -0.790        -19.383
  -0.788        -19.383
  -0.785        -19.383
  -0.783        -19.382
  -0.781        -19.382
  -0.779        -19.381
  -0.777        -19.381
  -0.774        -19.380
  -0.772        -19.379
  -0.770        -19.379
  -0.768        -19.378
  -0.766        -19.378
  -0.764        -19.377
  -0.762        -19.377
  -0.759        -19.376
  -0.757        -19.375
  -0.755        -19.374
  -0.753        -19.373
  -0.751        -19.373
  -0.748        -19.372
  -0.746        -19.371
  -0.744        -19.370
  -0.742        -19.369
  -0.740        -19.368
  -0.738        -19.367
  -0.736        -19.366
  -0.733        -19.365
  -0.731        -19.364
  -0.729        -19.363
  -0.727        -19.362
  -0.725        -19.361
  -0.723        -19.360
  -0.720        -19.359
  -0.718        -19.357
  -0.716        -19.356
  -0.714        -19.355
  -0.712        -19.353
  -0.709        -19.352
  -0.707        -19.351
  -0.705        -19.350
  -0.703        -19.348
  -0.701        -19.347
  -0.699        -19.346
  -0.697        -19.344
  -0.694        -19.343
  -0.692        -19.341
  -0.690        -19.340
  -0.688        -19.338
  -0.685        -19.337
  -0.683        -19.335
  -0.681        -19.334
  -0.679        -19.332
  -0.677        -19.330
  -0.675        -19.329
  -0.673        -19.327
  -0.670        -19.325
  -0.668        -19.323
  -0.666        -19.322
  -0.664        -19.320
  -0.662        -19.318
  -0.659        -19.317
  -0.657        -19.315
  -0.655        -19.313
  -0.653        -19.311
  -0.651        -19.309
  -0.649        -19.307
  -0.647        -19.305
  -0.644        -19.303
  -0.642        -19.301
  -0.640        -19.299
  -0.638        -19.298
  -0.636        -19.296
  -0.633        -19.294
  -0.631        -19.292
  -0.629        -19.290
  -0.627        -19.288
  -0.625        -19.285
  -0.623        -19.283
  -0.621        -19.281
  -0.618        -19.279
  -0.616        -19.277
  -0.614        -19.275
  -0.612        -19.273
  -0.610        -19.271
  -0.608        -19.269
  -0.605        -19.267
  -0.603        -19.265
  -0.601        -19.262
  -0.599        -19.260
  -0.596        -19.258
  -0.594        -19.256
  -0.592        -19.254
  -0.590        -19.251
  -0.588        -19.249
  -0.586        -19.247
  -0.584        -19.245
  -0.581        -19.243
  -0.579        -19.240
  -0.577        -19.238
  -0.575        -19.236
  -0.573        -19.234
  -0.571        -19.231
  -0.568        -19.229
  -0.566        -19.227
  -0.564        -19.224
  -0.562        -19.222
  -0.560        -19.220
  -0.557        -19.218
  -0.555        -19.215
  -0.553        -19.213
  -0.551        -19.211
  -0.549        -19.208
  -0.547        -19.206
  -0.544        -19.203
  -0.542        -19.201
  -0.540        -19.198
  -0.538        -19.196
  -0.536        -19.193
  -0.534        -19.191
  -0.531        -19.188
  -0.529        -19.186
  -0.527        -19.183
  -0.525        -19.180
  -0.523        -19.178
  -0.521        -19.175
  -0.518        -19.173
  -0.516        -19.170
  -0.514        -19.167
  -0.512        -19.165
  -0.510        -19.162
  -0.507        -19.159
  -0.505        -19.157
  -0.503        -19.154
  -0.501        -19.151
  -0.499        -19.148
  -0.497        -19.146
  -0.495        -19.143
  -0.492        -19.140
  -0.490        -19.138
  -0.488        -19.135
  -0.486        -19.132
  -0.484        -19.129
  -0.482        -19.127
  -0.479        -19.124
  -0.477        -19.121
  -0.475        -19.118
  -0.473        -19.116
  -0.471        -19.113
  -0.468        -19.110
  -0.466        -19.107
  -0.464        -19.105
  -0.462        -19.102
  -0.460        -19.099
  -0.458        -19.096
  -0.455        -19.093
  -0.453        -19.091
  -0.451        -19.088
  -0.449        -19.085
  -0.447        -19.082
  -0.445        -19.079
  -0.442        -19.076
  -0.440        -19.074
  -0.438        -19.071
  -0.436        -19.068
  -0.434        -19.065
  -0.432        -19.062
  -0.429        -19.059
  -0.427        -19.056
  -0.425        -19.054
  -0.423        -19.051
  -0.421        -19.048
  -0.419        -19.045
  -0.416        -19.042
  -0.414        -19.039
  -0.412        -19.036
  -0.410        -19.033
  -0.408        -19.030
  -0.405        -19.028
  -0.403        -19.025
  -0.401        -19.022
  -0.399        -19.019
  -0.397        -19.016
  -0.395        -19.013
  -0.392        -19.010
  -0.390        -19.007
  -0.388        -19.005
  -0.386        -19.002
  -0.384        -18.999
  -0.382        -18.996
  -0.379        -18.993
  -0.377        -18.990
  -0.375        -18.988
  -0.373        -18.985
  -0.371        -18.982
  -0.369        -18.980
  -0.366        -18.977
  -0.364        -18.974
  -0.362        -18.972
  -0.360        -18.969
  -0.358        -18.966
  -0.356        -18.964
  -0.353        -18.961
  -0.351        -18.959
  -0.349        -18.956
  -0.347        -18.953
  -0.345        -18.951
  -0.343        -18.948
  -0.340        -18.946
  -0.338        -18.943
  -0.336        -18.941
  -0.334        -18.938
  -0.332        -18.936
  -0.330        -18.933
  -0.327        -18.931
  -0.325        -18.929
  -0.323        -18.926
  -0.321        -18.924
  -0.319        -18.921
  -0.316        -18.919
  -0.314        -18.917
  -0.312        -18.915
  -0.310        -18.913
  -0.308        -18.910
  -0.306        -18.908
  -0.303        -18.906
  -0.301        -18.904
  -0.299        -18.902
  -0.297        -18.901
  -0.295        -18.899
  -0.293        -18.897
  -0.290        -18.896
  -0.288        -18.894
  -0.286        -18.892
  -0.284        -18.890
  -0.282        -18.889
  -0.280        -18.887
  -0.277        -18.886
  -0.275        -18.885
  -0.273        -18.883
  -0.271        -18.882
  -0.269        -18.881
  -0.267        -18.879
  -0.264        -18.878
  -0.262        -18.877
  -0.260        -18.876
  -0.258        -18.874
  -0.256        -18.873
  -0.253        -18.872
  -0.251        -18.871
  -0.249        -18.870
  -0.247        -18.869
  -0.245        -18.868
  -0.243        -18.867
  -0.241        -18.866
  -0.238        -18.865
  -0.236        -18.864
  -0.234        -18.863
  -0.232        -18.862
  -0.230        -18.861
  -0.227        -18.860
  -0.225        -18.860
  -0.223        -18.859
  -0.221        -18.858
  -0.219        -18.857
  -0.217        -18.856
  -0.214        -18.856
  -0.212        -18.855
  -0.210        -18.854
  -0.208        -18.854
  -0.206        -18.853
  -0.204        -18.852
  -0.201        -18.852
  -0.199        -18.851
  -0.197        -18.851
  -0.195        -18.850
  -0.193        -18.850
  -0.191        -18.850
  -0.188        -18.849
  -0.186        -18.849
  -0.184        -18.849
  -0.182        -18.848
  -0.180        -18.848
  -0.178        -18.848
  -0.175        -18.848
  -0.173        -18.848
  -0.171        -18.848
  -0.169        -18.848
  -0.167        -18.848
  -0.164        -18.848
  -0.162        -18.848
  -0.160        -18.848
  -0.158        -18.848
  -0.156        -18.849
  -0.154        -18.849
  -0.151        -18.849
  -0.149        -18.849
  -0.147        -18.850
  -0.145        -18.850
  -0.143        -18.850
  -0.141        -18.851
  -0.138        -18.851
  -0.136        -18.851
  -0.134        -18.852
  -0.132        -18.852
  -0.130        -18.852
  -0.128        -18.853
  -0.125        -18.853
  -0.123        -18.854
  -0.121        -18.854
  -0.119        -18.854
  -0.117        -18.855
  -0.115        -18.855
  -0.112        -18.855
  -0.110        -18.856
  -0.108        -18.856
  -0.106        -18.856
  -0.104        -18.856
  -0.102        -18.857
  -0.099        -18.857
  -0.097        -18.857
  -0.095        -18.857
  -0.093        -18.858
  -0.091        -18.858
  -0.089        -18.858
  -0.086        -18.858
  -0.084        -18.858
  -0.082        -18.858
  -0.080        -18.858
  -0.078        -18.858
  -0.075        -18.858
  -0.073        -18.858
  -0.071        -18.858
  -0.069        -18.859
  -0.067        -18.859
  -0.065        -18.859
  -0.063        -18.859
  -0.060        -18.859
  -0.058        -18.859
  -0.056        -18.859
  -0.054        -18.859
  -0.052        -18.859
  -0.049        -18.859
  -0.047        -18.860
  -0.045        -18.860
  -0.043        -18.860
  -0.041        -18.860
  -0.039        -18.860
  -0.036        -18.860
  -0.034        -18.860
  -0.032        -18.861
  -0.030        -18.861
  -0.028        -18.861
  -0.026        -18.861
  -0.023        -18.861
  -0.021        -18.861
  -0.019        -18.862
  -0.017        -18.862
  -0.015        -18.862
  -0.013        -18.862
  -0.010        -18.862
  -0.008        -18.862
  -0.006        -18.862
  -0.004        -18.862
  -0.002        -18.862
   0.000        -18.863
   0.003        -18.863
   0.005        -18.863
   0.007        -18.863
   0.009        -18.863
   0.011        -18.863
   0.013        -18.863
   0.016        -18.863
   0.018        -18.864
   0.020        -18.864
   0.022        -18.864
   0.024        -18.864
   0.027        -18.864
   0.029        -18.864
   0.031        -18.864
   0.033        -18.865
   0.035        -18.865
   0.037        -18.865
   0.040        -18.865
   0.042        -18.865
   0.044        -18.865
   0.046        -18.865
   0.048        -18.866
   0.050        -18.866
   0.053        -18.866
   0.055        -18.866
   0.057        -18.866
   0.059        -18.866
   0.061        -18.867
   0.063        -18.867
   0.066        -18.867
   0.068        -18.867
   0.070        -18.867
   0.072        -18.867
   0.074        -18.867
   0.076        -18.867
   0.079        -18.867
   0.081        -18.867
   0.083        -18.867
   0.085        -18.867
   0.087        -18.867
   0.089        -18.867
   0.092        -18.867
   0.094        -18.867
   0.096        -18.867
   0.098        -18.867
   0.100        -18.867
   0.103        -18.867
   0.105        -18.867
   0.107        -18.867
   0.109        -18.867
   0.111        -18.867
   0.113        -18.867
   0.116        -18.867
   0.118        -18.867
   0.120        -18.867
   0.122        -18.867
   0.124        -18.867
   0.126        -18.867
   0.128        -18.867
   0.131        -18.867
   0.133        -18.868
   0.135        -18.868
   0.137        -18.867
   0.139        -18.867
   0.142        -18.867
   0.144        -18.867
   0.146        -18.867
   0.148        -18.867
   0.150        -18.866
   0.153        -18.867
   0.155        -18.866
   0.157        -18.866
   0.159        -18.866
   0.161        -18.866
   0.163        -18.865
   0.165        -18.865
   0.168        -18.865
   0.170        -18.865
   0.172        -18.865
   0.174        -18.865
   0.176        -18.864
   0.178        -18.864
   0.181        -18.864
   0.183        -18.864
   0.185        -18.863
   0.187        -18.863
   0.189        -18.863
   0.192        -18.863
   0.194        -18.863
   0.196        -18.862
   0.198        -18.862
   0.200        -18.862
   0.202        -18.861
   0.205        -18.861
   0.207        -18.861
   0.209        -18.860
   0.211        -18.860
   0.213        -18.860
   0.215        -18.860
   0.218        -18.860
   0.220        -18.860
   0.222        -18.859
   0.224        -18.860
   0.226        -18.860
   0.229        -18.860
   0.231        -18.860
   0.233        -18.860
   0.235        -18.860
   0.237        -18.860
   0.239        -18.860
   0.241        -18.860
   0.244        -18.861
   0.246        -18.862
   0.248        -18.862
   0.250        -18.863
   0.252        -18.863
   0.254        -18.864
   0.257        -18.865
   0.259        -18.865
   0.261        -18.866
   0.263        -18.867
   0.265        -18.868
   0.267        -18.869
   0.270        -18.869
   0.272        -18.871
   0.274        -18.871
   0.276        -18.872
   0.278        -18.873
   0.281        -18.874
   0.283        -18.875
   0.285        -18.876
   0.287        -18.877
   0.289        -18.878
   0.291        -18.879
   0.293        -18.880
   0.296        -18.882
   0.298        -18.883
   0.300        -18.884
   0.302        -18.885
   0.305        -18.886
   0.307        -18.887
   0.309        -18.888
   0.311        -18.890
   0.313        -18.891
   0.315        -18.892
   0.318        -18.894
   0.320        -18.895
   0.322        -18.896
   0.324        -18.897
   0.326        -18.898
   0.328        -18.900
   0.330        -18.901
   0.333        -18.903
   0.335        -18.904
   0.337        -18.905
   0.339        -18.907
   0.341        -18.908
   0.344        -18.909
   0.346        -18.911
   0.348        -18.912
   0.350        -18.913
   0.352        -18.915
   0.354        -18.916
   0.356        -18.918
   0.359        -18.919
   0.361        -18.921
   0.363        -18.922
   0.365        -18.924
   0.367        -18.925
   0.369        -18.927
   0.372        -18.928
   0.374        -18.930
   0.376        -18.931
   0.378        -18.933
   0.380        -18.934
   0.383        -18.936
   0.385        -18.937
   0.387        -18.939
   0.389        -18.941
   0.391        -18.943
   0.393        -18.944
   0.396        -18.946
   0.398        -18.948
   0.400        -18.950
   0.402        -18.952
   0.404        -18.954
   0.406        -18.956
   0.409        -18.958
   0.411        -18.960
   0.413        -18.963
   0.415        -18.965
   0.417        -18.967
   0.420        -18.969
   0.422        -18.972
   0.424        -18.974
   0.426        -18.976
   0.428        -18.979
   0.430        -18.981
   0.432        -18.984
   0.435        -18.986
   0.437        -18.989
   0.439        -18.991
   0.441        -18.994
   0.443        -18.996
   0.446        -18.999
   0.448        -19.002
   0.450        -19.004
   0.452        -19.008
   0.454        -19.010
   0.456        -19.013
   0.459        -19.016
   0.461        -19.019
   0.463        -19.022
   0.465        -19.025
   0.467        -19.028
   0.469        -19.031
   0.472        -19.034
   0.474        -19.037
   0.476        -19.040
   0.478        -19.042
   0.480        -19.045
   0.482        -19.048
   0.485        -19.051
   0.487        -19.054
   0.489        -19.056
   0.491        -19.057
   0.493        -19.058
   0.495        -19.059
   0.498        -19.060
   0.500        -19.061
   0.502        -19.062
   0.504        -19.063
   0.506        -19.064
   0.510        -19.065
   0.512        -19.065
   0.513        -19.064
   0.515        -19.064
   0.517        -19.063
   0.519        -19.063
   0.522        -19.062
   0.524        -19.062
   0.526        -19.061
   0.528        -19.061
   0.530        -19.060
   0.532        -19.059
   0.535        -19.059
   0.537        -19.058
   0.539        -19.057
   0.541        -19.057
   0.543        -19.056
   0.545        -19.056
   0.548        -19.055
   0.550        -19.054
   0.552        -19.053
   0.554        -19.053
   0.556        -19.052
   0.558        -19.051
   0.561        -19.051
   0.563        -19.050
   0.565        -19.049
   0.567        -19.048
   0.569        -19.048
   0.572        -19.047
   0.574        -19.046
   0.576        -19.046
   0.578        -19.045
   0.580        -19.045
   0.582        -19.044
   0.585        -19.043
   0.587        -19.042
   0.589        -19.042
   0.591        -19.041
   0.593        -19.040
   0.595        -19.039
   0.598        -19.039
   0.600        -19.038
   0.602        -19.038
   0.604        -19.037
   0.606        -19.037
   0.608        -19.036
   0.611        -19.035
   0.613        -19.034
   0.615        -19.034
   0.617        -19.033
   0.619        -19.033
   0.621        -19.032
   0.624        -19.031
   0.626        -19.030
   0.628        -19.030
   0.630        -19.029
   0.632        -19.028
   0.634        -19.028
   0.637        -19.027
   0.639        -19.026
   0.641        -19.025
   0.643        -19.024
   0.645        -19.023
   0.647        -19.023
   0.650        -19.022
   0.652        -19.021
   0.654        -19.020
   0.656        -19.020
   0.658        -19.018
   0.660        -19.018
   0.663        -19.017
   0.665        -19.016
   0.667        -19.015
   0.669        -19.014
   0.671        -19.013
   0.673        -19.012
   0.676        -19.012
   0.678        -19.010
   0.680        -19.009
   0.682        -19.009
   0.684        -19.008
   0.687        -19.007
   0.689        -19.005
   0.691        -19.005
   0.693        -19.004
   0.695        -19.003
   0.697        -19.002
   0.700        -19.001
   0.702        -19.001
   0.704        -19.000
   0.706        -18.999
   0.708        -18.999
   0.710        -18.998
   0.713        -18.997
   0.715        -18.997
   0.717        -18.996
   0.719        -18.996
   0.721        -18.996
   0.723        -18.996
   0.726        -18.995
   0.728        -18.995
   0.730        -18.995
   0.732        -18.995
   0.734        -18.995
   0.736        -18.995
   0.739        -18.995
   0.741        -18.995
   0.743        -18.994
   0.745        -18.994
   0.747        -18.994
   0.750        -18.994
   0.752        -18.993
   0.754        -18.993
   0.756        -18.993
   0.758        -18.992
   0.760        -18.992
   0.762        -18.991
   0.765        -18.991
   0.767        -18.990
   0.769        -18.990
   0.771        -18.989
   0.773        -18.989
   0.776        -18.988
   0.778        -18.988
   0.780        -18.987
   0.782        -18.987
   0.784        -18.986
   0.786        -18.986
   0.789        -18.986
   0.791        -18.986
   0.793        -18.985
   0.795        -18.985
   0.797        -18.985
   0.799        -18.985
   0.802        -18.984
   0.804        -18.984
   0.806        -18.984
   0.808        -18.984
   0.810        -18.985
   0.812        -18.985
   0.815        -18.985
   0.817        -18.985
   0.819        -18.985
   0.821        -18.985
   0.823        -18.985
   0.825        -18.986
   0.828        -18.987
   0.830        -18.988
   0.832        -18.989
   0.834        -18.990
   0.836        -18.991
   0.838        -18.992
   0.841        -18.993
   0.843        -18.993
   0.845        -18.995
   0.847        -18.998
   0.849        -19.000
   0.852        -19.002
   0.854        -19.004
   0.856        -19.006
   0.858        -19.009
   0.860        -19.011
   0.862        -19.013
   0.865        -19.015
   0.867        -19.018
   0.869        -19.020
   0.871        -19.023
   0.873        -19.026
   0.875        -19.028
   0.878        -19.031
   0.880        -19.034
   0.882        -19.036
   0.884        -19.039
   0.886        -19.042
   0.888        -19.045
   0.891        -19.048
   0.893        -19.052
   0.895        -19.055
   0.897        -19.058
   0.899        -19.061
   0.901        -19.065
   0.904        -19.068
   0.906        -19.071
   0.908        -19.075
   0.910        -19.079
   0.912        -19.083
   0.915        -19.087
   0.917        -19.091
   0.919        -19.095
   0.921        -19.099
   0.923        -19.103
   0.925        -19.107
   0.928        -19.111
   0.930        -19.116
   0.932        -19.121
   0.934        -19.126
   0.936        -19.131
   0.938        -19.135
   0.941        -19.140
   0.943        -19.145
   0.945        -19.150
   0.947        -19.155
   0.949        -19.161
   0.951        -19.168
   0.954        -19.174
   0.956        -19.181
   0.958        -19.188
   0.960        -19.194
   0.962        -19.201
   0.964        -19.208
   0.967        -19.214
   0.969        -19.220
   0.971        -19.225
   0.973        -19.230
   0.975        -19.235
   0.977        -19.240
   0.980        -19.245
   0.982        -19.250
   0.984        -19.255
   0.986        -19.260
   0.988        -19.270
   0.990        -19.281
   0.993        -19.287
   0.995        -19.293
   0.997        -19.298
   0.999        -19.304
   1.001        -19.310
   1.004        -19.316
   1.006        -19.322
   1.008        -19.328
   1.010        -19.335
   1.012        -19.347
   1.014        -19.358
   1.017        -19.370
   1.019        -19.381
   1.021        -19.393
   1.023        -19.405
   1.025        -19.416
   1.027        -19.428
   1.030        -19.440
   1.032        -19.455
   1.034        -19.472
   1.036        -19.489
   1.038        -19.506
   1.040        -19.523
   1.043        -19.540
   1.045        -19.557
   1.047        -19.574
   1.049        -19.591
   1.051        -19.610
   1.053        -19.637
   1.056        -19.665
   1.058        -19.693
   1.060        -19.722
   1.062        -19.750
   1.064        -19.778
   1.066        -19.806
   1.069        -19.834
   1.071        -19.862
   1.073        -19.910
   1.075        -19.977
   1.077        -20.044
   1.079        -20.111
   1.082        -20.178
   1.084        -20.244
   1.086        -20.311
   1.088        -20.378
   1.090        -20.445
   1.093        -20.516
   1.095        -20.623
   1.097        -20.740
   1.099        -20.857
   1.101        -20.974
   1.103        -21.091
   1.106        -21.208
   1.108        -21.325
   1.110        -21.442
   1.112        -21.575
   1.114        -21.645
   1.117        -21.648
   1.119        -21.651
   1.121        -21.654
   1.123        -21.657
   1.125        -21.660
   1.127        -21.663
   1.129        -21.666
   1.131        -21.670
   1.134        -21.673
   1.136        -21.676
   1.138        -21.679
   1.140        -21.683
   1.143        -21.686
   1.145        -21.689
   1.147        -21.692
   1.149        -21.695
   1.151        -21.698
   1.153        -21.701
   1.155        -21.703
   1.158        -21.706
   1.160        -21.708
   1.162        -21.710
   1.164        -21.712
   1.166        -21.714
   1.169        -21.717
   1.171        -21.719
   1.173        -21.721
   1.175        -21.723
   1.177        -21.726
   1.180        -21.728
   1.181        -21.730
   1.184        -21.733
   1.186        -21.736
   1.188        -21.738
   1.190        -21.741
   1.192        -21.743
   1.195        -21.746
   1.197        -21.748
   1.199        -21.750
   1.201        -21.753
   1.203        -21.755
   1.205        -21.757
   1.208        -21.760
   1.210        -21.762
   1.212        -21.764
   1.214        -21.766
   1.216        -21.769
   1.218        -21.771
   1.220        -21.773
   1.223        -21.776
   1.225        -21.778
   1.227        -21.781
   1.229        -21.783
   1.232        -21.786
   1.234        -21.788
   1.236        -21.790
   1.238        -21.792
   1.240        -21.794
   1.242        -21.795
   1.245        -21.797
   1.247        -21.798
   1.249        -21.800
   1.251        -21.801
   1.253        -21.803
   1.255        -21.804
   1.258        -21.806
   1.260        -21.807
   1.262        -21.809
   1.264        -21.810
   1.266        -21.812
   1.268        -21.814
   1.270        -21.815
   1.273        -21.817
   1.275        -21.819
   1.277        -21.820
   1.279        -21.822
   1.281        -21.824
   1.284        -21.826
   1.286        -21.828
   1.288        -21.831
   1.290        -21.833
   1.292        -21.835
   1.294        -21.837
   1.297        -21.839
   1.299        -21.841
   1.301        -21.844
   1.303        -21.847
   1.305        -21.850
   1.307        -21.852
   1.310        -21.855
   1.312        -21.858
   1.314        -21.861
   1.316        -21.863
   1.318        -21.866
   1.320        -21.869
   1.323        -21.874
   1.325        -21.879
   1.327        -21.883
   1.329        -21.888
   1.331        -21.893
   1.334        -21.898
   1.336        -21.902
   1.338        -21.907
   1.340        -21.912
   1.342        -21.917
   1.344        -21.923
   1.346        -21.928
   1.349        -21.933
   1.351        -21.939
   1.353        -21.944
   1.355        -21.950
   1.357        -21.956
   1.359        -21.961
   1.362        -21.966
   1.364        -21.972
   1.366        -21.978
   1.368        -21.984
   1.370        -21.990
   1.373        -21.995
   1.375        -22.001
   1.377        -22.007
   1.379        -22.013
   1.381        -22.019
   1.383        -22.023
   1.386        -22.024
   1.388        -22.026
   1.390        -22.027
   1.392        -22.029
   1.394        -22.031
   1.397        -22.032
   1.399        -22.034
   1.401        -22.035
   1.403        -22.037
   1.405        -22.039
   1.407        -22.041
   1.410        -22.044
   1.412        -22.046
   1.414        -22.048
   1.416        -22.050
   1.418        -22.053
   1.420        -22.055
   1.423        -22.057
   1.425        -22.060
   1.427        -22.062
   1.429        -22.065
   1.431        -22.068
   1.433        -22.071
   1.436        -22.074
   1.438        -22.077
   1.440        -22.079
   1.442        -22.082
   1.444        -22.085
   1.446        -22.088
   1.449        -22.092
   1.451        -22.096
   1.453        -22.099
   1.455        -22.103
   1.457        -22.106
   1.460        -22.110
   1.462        -22.113
   1.464        -22.117
   1.466        -22.120
   1.468        -22.124
   1.470        -22.128
   1.472        -22.132
   1.475        -22.135
   1.477        -22.139
   1.479        -22.143
   1.481        -22.147
   1.483        -22.150
   1.486        -22.154
   1.488        -22.158
   1.490        -22.161
   1.492        -22.164
   1.494        -22.167
   1.496        -22.171
   1.498        -22.174
   1.501        -22.177
   1.503        -22.181
   1.505        -22.184
   1.507        -22.187
   1.509        -22.188
   1.512        -22.190
   1.514        -22.191
   1.516        -22.192
   1.518        -22.193
   1.520        -22.194
   1.522        -22.196
   1.525        -22.197
   1.527        -22.198
   1.529        -22.197
   1.531        -22.193
   1.533        -22.188
   1.535        -22.183
   1.538        -22.178
   1.540        -22.174
   1.542        -22.169
   1.544        -22.164
   1.546        -22.159
   1.549        -22.154
   1.551        -22.145
   1.553        -22.133
   1.555        -22.122
   1.557        -22.110
   1.559        -22.099
   1.561        -22.087
   1.564        -22.076
   1.566        -22.064
   1.568        -22.053
   1.570        -22.040
   1.572        -22.022
   1.575        -22.002
   1.577        -21.983
   1.579        -21.964
   1.581        -21.945
   1.583        -21.926
   1.585        -21.906
   1.588        -21.887
   1.590        -22.009
   1.592        -22.362
   1.594        -22.366
   1.596        -22.370
   1.598        -22.373
   1.601        -22.377
   1.603        -22.381
   1.605        -22.384
   1.607        -22.388
   1.609        -22.392
   1.611        -22.396
   1.614        -22.401
   1.616        -22.407
   1.618        -22.412
   1.620        -22.418
   1.622        -22.423
   1.624        -22.429
   1.627        -22.435
   1.629        -22.440
   1.631        -22.446
   1.633        -22.452
   1.635        -22.459
   1.637        -22.466
   1.640        -22.473
   1.642        -22.480
   1.644        -22.487
   1.646        -22.494
   1.648        -22.501
   1.651        -22.508
   1.653        -22.515
   1.655        -22.525
   1.657        -22.535
   1.659        -22.546
   1.661        -22.556
   1.664        -22.567
   1.666        -22.577
   1.668        -22.588
   1.670        -22.598
   1.672        -22.609
   1.674        -22.621
   1.676        -22.641
   1.679        -22.662
   1.681        -22.683
   1.683        -22.703
   1.685        -22.724
   1.687        -22.745
   1.690        -22.765
   1.692        -22.786
   1.694        -22.806
   1.696        -22.871
   1.699        -22.985
   1.701        -23.084
   1.703        -23.176
   1.705        -23.268
   1.707        -23.367
   1.709        -23.466
   1.711        -23.565
   1.714        -23.675
   1.716        -23.692
   1.718        -23.722
   1.720        -23.753
   1.722        -23.789
   1.724        -23.826
   1.727        -23.863
   1.729        -23.899
   1.731        -23.936
   1.733        -23.972
   1.735        -24.009
   1.737        -24.042
   1.739        -24.067
   1.742        -24.093
   1.744        -24.119
   1.746        -24.145
   1.748        -24.171
   1.750        -24.196
   1.753        -24.222
   1.755        -24.248
   1.757        -24.273
   1.759        -24.289
   1.761        -24.302
   1.763        -24.315
   1.766        -24.328
   1.768        -24.341
   1.770        -24.354
   1.772        -24.367
   1.774        -24.380
   1.776        -24.393
   1.779        -24.404
   1.781        -24.409
   1.783        -24.414
   1.785        -24.419
   1.787        -24.424
   1.789        -24.430
   1.792        -24.435
   1.794        -24.440
   1.796        -24.445
   1.798        -24.450
   1.800        -24.453
   1.802        -24.455
   1.805        -24.456
   1.807        -24.458
   1.809        -24.460
   1.811        -24.462
   1.813        -24.464
   1.816        -24.465
   1.818        -24.467
   1.820        -24.469
   1.822        -24.470
   1.824        -24.471
   1.826        -24.471
   1.829        -24.472
   1.831        -24.473
   1.833        -24.474
   1.835        -24.475
   1.837        -24.475
   1.839        -24.476
   1.842        -24.477
   1.844        -24.477
   1.846        -24.478
   1.848        -24.478
   1.850        -24.479
   1.852        -24.479
   1.855        -24.480
   1.857        -24.480
   1.859        -24.481
   1.861        -24.481
   1.863        -24.482
   1.865        -24.482
   1.868        -24.482
   1.870        -24.483
   1.872        -24.483
   1.874        -24.483
   1.876        -24.484
   1.878        -24.484
   1.881        -24.484
   1.883        -24.484
   1.885        -24.485
   1.887        -24.485
   1.889        -24.485
   1.891        -24.485
   1.894        -24.486
   1.896        -24.486
   1.898        -24.486
   1.900        -24.487
   1.902        -24.487
   1.905        -24.487
   1.907        -24.487
   1.909        -24.487
   1.911        -24.488
   1.913        -24.488
   1.915        -24.488
   1.918        -24.488
   1.920        -24.488
   1.922        -24.488
   1.924        -24.489
   1.926        -24.489
   1.928        -24.489
   1.931        -24.489
   1.933        -24.489
   1.935        -24.489
   1.937        -24.489
   1.939        -24.490
   1.941        -24.490
   1.944        -24.490
   1.946        -24.490
   1.948        -24.490
   1.950        -24.490
   1.952        -24.490
   1.954        -24.490
   1.957        -24.490
   1.959        -24.490
   1.961        -24.490
   1.963        -24.490
   1.965        -24.490
   1.967        -24.491
   1.970        -24.491
   1.972        -24.491
   1.974        -24.490
   1.976        -24.490
   1.978        -24.490
   1.980        -24.490
   1.983        -24.490
   1.985        -24.490
   1.987        -24.490
   1.989        -24.490
   1.991        -24.490
   1.993        -24.490
   1.996        -24.490
   1.998        -24.490
   2.000        -24.490
   2.002        -24.490
   2.004        -24.490
   2.007        -24.490
   2.009        -24.489
   2.011        -24.489
   2.013        -24.489
   2.015        -24.489
   2.017        -24.489
   2.020        -24.489
   2.022        -24.488
   2.024        -24.488
   2.026        -24.488
   2.028        -24.488
   2.030        -24.488
   2.033        -24.488
   2.035        -24.487
   2.037        -24.487
   2.039        -24.487
   2.041        -24.486
   2.043        -24.486
   2.046        -24.486
   2.048        -24.486
   2.050        -24.485
   2.052        -24.485
   2.054        -24.485
   2.056        -24.484
   2.059        -24.484
   2.061        -24.484
   2.063        -24.483
   2.065        -24.483
   2.067        -24.483
   2.069        -24.482
   2.072        -24.482
   2.074        -24.481
   2.076        -24.481
   2.078        -24.480
   2.080        -24.480
   2.083        -24.480
   2.085        -24.479
   2.087        -24.479
   2.089        -24.478
   2.091        -24.478
   2.093        -24.477
   2.096        -24.477
   2.098        -24.477
   2.100        -24.477
   2.102        -24.476
   2.104        -24.476
   2.106        -24.476
   2.109        -24.476
   2.111        -24.475
   2.113        -24.475
   2.115        -24.474
   2.117        -24.473
   2.120        -24.473
   2.122        -24.472
   2.124        -24.471
   2.126        -24.470
   2.128        -24.470
   2.130        -24.469
   2.133        -24.468
   2.135        -24.467
   2.137        -24.467
   2.139        -24.466
   2.141        -24.465
   2.143        -24.464
   2.145        -24.463
   2.148        -24.463
   2.150        -24.462
   2.152        -24.461
   2.154        -24.460
   2.157        -24.459
   2.158        -24.458
   2.161        -24.457
   2.163        -24.456
   2.165        -24.455
   2.167        -24.454
   2.169        -24.453
   2.172        -24.453
   2.174        -24.452
   2.176        -24.451
   2.178        -24.450
   2.180        -24.449
   2.183        -24.448
   2.185        -24.447
   2.187        -24.445
   2.189        -24.445
   2.191        -24.443
   2.193        -24.443
   2.195        -24.441
   2.197        -24.440
   2.200        -24.439
   2.202        -24.438
   2.204        -24.437
   2.206        -24.436
   2.208        -24.435
   2.211        -24.434
   2.213        -24.433
   2.215        -24.432
   2.217        -24.430
   2.219        -24.430
   2.221        -24.428
   2.224        -24.427
   2.226        -24.426
   2.228        -24.425
   2.230        -24.424
   2.232        -24.422
   2.235        -24.421
   2.237        -24.420
   2.239        -24.419
   2.241        -24.418
   2.243        -24.416
   2.245        -24.415
   2.247        -24.414
   2.250        -24.412
   2.252        -24.411
   2.254        -24.410
   2.256        -24.409
   2.259        -24.407
   2.261        -24.406
   2.263        -24.404
   2.265        -24.403
   2.267        -24.402
   2.269        -24.400
   2.271        -24.399
   2.274        -24.397
   2.276        -24.396
   2.278        -24.395
   2.280        -24.393
   2.282        -24.392
   2.284        -24.391
   2.287        -24.389
   2.289        -24.388
   2.291        -24.386
   2.293        -24.385
   2.295        -24.383
   2.297        -24.382
   2.299        -24.380
   2.302        -24.379
   2.304        -24.377
   2.306        -24.376
   2.308        -24.374
   2.310        -24.373
   2.313        -24.371
   2.315        -24.370
   2.317        -24.368
   2.319        -24.367
   2.321        -24.365
   2.323        -24.364
   2.326        -24.362
   2.328        -24.360
   2.330        -24.359
   2.332        -24.357
   2.334        -24.356
   2.337        -24.354
   2.339        -24.353
   2.341        -24.351
   2.343        -24.349
   2.345        -24.348
   2.347        -24.346
   2.349        -24.344
   2.352        -24.343
   2.354        -24.341
   2.356        -24.339
   2.358        -24.338
   2.360        -24.336
   2.363        -24.335
   2.365        -24.333
   2.367        -24.331
   2.369        -24.330
   2.371        -24.328
   2.374        -24.326
   2.376        -24.325
   2.378        -24.323
   2.380        -24.321
   2.382        -24.320
   2.384        -24.318
   2.386        -24.316
   2.389        -24.315
   2.391        -24.313
   2.393        -24.311
   2.395        -24.310
   2.397        -24.308
   2.400        -24.306
   2.402        -24.305
   2.404        -24.303
   2.406        -24.303
   2.408        -24.302
   2.410        -24.301
   2.413        -24.300
   2.415        -24.299
   2.417        -24.298
   2.419        -24.297
   2.421        -24.296
   2.423        -24.295
   2.425        -24.294
   2.428        -24.294
   2.430        -24.293
   2.432        -24.292
   2.434        -24.291
   2.436        -24.290
   2.439        -24.290
   2.441        -24.289
   2.443        -24.288
   2.445        -24.287
   2.447        -24.286
   2.449        -24.284
   2.452        -24.283
   2.454        -24.281
   2.456        -24.280
   2.458        -24.279
   2.460        -24.277
   2.462        -24.276
   2.465        -24.274
   2.467        -24.272
   2.469        -24.271
   2.471        -24.269
   2.473        -24.268
   2.475        -24.266
   2.478        -24.265
   2.480        -24.263
   2.482        -24.262
   2.484        -24.260
   2.486        -24.258
   2.489        -24.257
   2.491        -24.255
   2.493        -24.254
   2.495        -24.252
   2.497        -24.251
   2.499        -24.249
   2.502        -24.248
   2.504        -24.246
   2.506        -24.245
   2.508        -24.243
   2.510        -24.242
   2.512        -24.240
   2.514        -24.239
   2.517        -24.238
   2.519        -24.236
   2.521        -24.235
   2.523        -24.233
   2.525        -24.232
   2.528        -24.231
   2.530        -24.229
   2.532        -24.228
   2.534        -24.227
   2.536        -24.225
   2.538        -24.224
   2.541        -24.223
   2.543        -24.221
   2.545        -24.220
   2.547        -24.219
   2.549        -24.218
   2.552        -24.217
   2.554        -24.215
   2.556        -24.214
   2.558        -24.213
   2.560        -24.212
   2.562        -24.211
   2.565        -24.210
   2.567        -24.209
   2.569        -24.207
   2.571        -24.206
   2.573        -24.205
   2.575        -24.204
   2.578        -24.204
   2.580        -24.202
   2.582        -24.202
   2.584        -24.201
   2.586        -24.200
   2.588        -24.199
   2.590        -24.198
   2.593        -24.197
   2.595        -24.196
   2.597        -24.196
   2.599        -24.195
   2.601        -24.194
   2.604        -24.193
   2.606        -24.193
   2.608        -24.192
   2.610        -24.191
   2.612        -24.191
   2.614        -24.191
   2.617        -24.190
   2.619        -24.190
   2.621        -24.190
   2.623        -24.190
   2.625        -24.190
   2.627        -24.189
   2.630        -24.189
   2.632        -24.189
   2.634        -24.190
   2.636        -24.191
   2.638        -24.192
   2.641        -24.193
   2.643        -24.194
   2.645        -24.195
   2.647        -24.196
   2.649        -24.197
   2.651        -24.198
   2.654        -24.200
   2.656        -24.203
   2.658        -24.207
   2.660        -24.210
   2.662        -24.214
   2.664        -24.217
   2.666        -24.221
   2.669        -24.224
   2.671        -24.228
   2.673        -24.231
   2.675        -24.237
   2.677        -24.244
   2.680        -24.250
   2.682        -24.256
   2.684        -24.263
   2.686        -24.269
   2.688        -24.276
   2.690        -24.282
   2.693        -24.289
   2.695        -24.295
   2.697        -24.303
   2.699        -24.310
   2.701        -24.318
   2.703        -24.325
   2.706        -24.333
   2.708        -24.340
   2.710        -24.348
   2.712        -24.355
   2.714        -24.363
   2.716        -24.370
   2.719        -24.377
   2.721        -24.384
   2.723        -24.391
   2.725        -24.399
   2.727        -24.406
   2.729        -24.413
   2.732        -24.420
   2.734        -24.427
   2.736        -24.434
   2.738        -24.440
   2.740        -24.447
   2.743        -24.453
   2.745        -24.460
   2.747        -24.467
   2.749        -24.473
   2.751        -24.480
   2.753        -24.486
   2.756        -24.493
   2.758        -24.499
   2.760        -24.506
   2.762        -24.512
   2.764        -24.519
   2.766        -24.525
   2.769        -24.532
   2.771        -24.538
   2.773        -24.545
   2.775        -24.551
   2.777        -24.558
   2.779        -24.564
   2.782        -24.570
   2.784        -24.577
   2.786        -24.583
   2.788        -24.589
   2.790        -24.596
   2.792        -24.602
   2.795        -24.609
   2.797        -24.615
   2.799        -24.621
   2.801        -24.627
   2.803        -24.634
   2.805        -24.640
   2.808        -24.646
   2.810        -24.653
   2.812        -24.659
   2.814        -24.665
   2.816        -24.671
   2.819        -24.677
   2.821        -24.684
   2.823        -24.690
   2.825        -24.696
   2.827        -24.702
   2.829        -24.708
   2.832        -24.715
   2.834        -24.721
   2.836        -24.727
   2.838        -24.733
   2.840        -24.739
   2.842        -24.745
   2.845        -24.751
   2.847        -24.757
   2.849        -24.763
   2.851        -24.769
   2.853        -24.775
   2.855        -24.781
   2.858        -24.787
   2.860        -24.793
   2.862        -24.798
   2.864        -24.804
   2.866        -24.809
   2.868        -24.815
   2.871        -24.820
   2.873        -24.826
   2.875        -24.831
   2.877        -24.837
   2.879        -24.842
   2.881        -24.848
   2.884        -24.853
   2.886        -24.859
   2.888        -24.864
   2.890        -24.870
   2.892        -24.876
   2.894        -24.881
   2.897        -24.887
   2.899        -24.892
   2.901        -24.898
   2.903        -24.903
   2.905        -24.909
   2.908        -24.914
   2.910        -24.919
   2.912        -24.925
   2.914        -24.930
   2.916        -24.935
   2.918        -24.941
   2.921        -24.946
   2.923        -24.951
   2.925        -24.957
   2.927        -24.961
   2.929        -24.966
   2.931        -24.971
   2.934        -24.976
   2.936        -24.980
   2.938        -24.985
   2.940        -24.990
   2.942        -24.995
   2.944        -24.999
   2.947        -25.004
   2.949        -25.008
   2.951        -25.013
   2.953        -25.017
   2.955        -25.021
   2.957        -25.026
   2.960        -25.030
   2.962        -25.034
   2.964        -25.039
   2.966        -25.043
   2.968        -25.047
   2.970        -25.051
   2.973        -25.055
   2.975        -25.059
   2.977        -25.064
   2.979        -25.068
   2.981        -25.072
   2.984        -25.076
   2.986        -25.080
   2.988        -25.084
   2.990        -25.088
   2.992        -25.092
   2.994        -25.095
   2.997        -25.099
   2.999        -25.103
   3.001        -25.107
   3.003        -25.111
   3.005        -25.115
   3.007        -25.118
   3.010        -25.122
   3.012        -25.125
   3.014        -25.129
   3.016        -25.132
   3.018        -25.136
   3.020        -25.139
   3.023        -25.143
   3.025        -25.146
   3.027        -25.150
   3.029        -25.153
   3.031        -25.157
   3.033        -25.160
   3.036        -25.163
   3.038        -25.167
   3.040        -25.170
   3.042        -25.173
   3.044        -25.177
   3.046        -25.180
   3.049        -25.183
   3.051        -25.186
   3.053        -25.189
   3.055        -25.193
   3.057        -25.196
   3.060        -25.199
   3.062        -25.202
   3.064        -25.205
   3.066        -25.208
   3.068        -25.212
   3.070        -25.215
   3.073        -25.218
   3.075        -25.221
   3.077        -25.224
   3.079        -25.227
   3.081        -25.230
   3.083        -25.233
   3.086        -25.236
   3.088        -25.239
   3.090        -25.243
   3.092        -25.245
   3.094        -25.248
   3.096        -25.251
   3.099        -25.254
   3.101        -25.256
   3.103        -25.259
   3.105        -25.262
   3.107        -25.265
   3.109        -25.268
   3.112        -25.270
   3.114        -25.273
   3.116        -25.276
   3.118        -25.278
   3.120        -25.281
   3.123        -25.283
   3.125        -25.286
   3.127        -25.288
   3.129        -25.291
   3.131        -25.293
   3.133        -25.296
   3.136        -25.298
   3.138        -25.301
   3.140        -25.303
   3.142        -25.306
   3.144        -25.308
   3.146        -25.310
   3.149        -25.313
   3.151        -25.315
   3.153        -25.318
   3.155        -25.320
   3.157        -25.322
   3.159        -25.324
   3.162        -25.327
   3.164        -25.329
   3.166        -25.331
   3.168        -25.334
   3.170        -25.336
   3.172        -25.338
   3.175        -25.340
   3.177        -25.343
   3.179        -25.345
   3.181        -25.347
   3.183        -25.349
   3.185        -25.351
   3.188        -25.354
   3.190        -25.356
   3.192        -25.358
   3.194        -25.360
   3.196        -25.362
   3.199        -25.364
   3.201        -25.366
   3.203        -25.368
   3.205        -25.371
   3.207        -25.372
   3.209        -25.375
   3.212        -25.377
   3.214        -25.379
   3.216        -25.381
   3.218        -25.384
   3.220        -25.386
   3.222        -25.388
   3.225        -25.390
   3.227        -25.392
   3.229        -25.395
   3.231        -25.397
   3.233        -25.399
   3.236        -25.401
   3.237        -25.403
   3.240        -25.405
   3.242        -25.408
   3.244        -25.410
   3.246        -25.412
   3.248        -25.414
   3.251        -25.417
   3.253        -25.418
   3.255        -25.421
   3.257        -25.423
   3.259        -25.425
   3.261        -25.426
   3.263        -25.428
   3.266        -25.430
   3.268        -25.432
   3.270        -25.434
   3.272        -25.436
   3.274        -25.438
   3.277        -25.439
   3.279        -25.441
   3.281        -25.442
   3.283        -25.444
   3.285        -25.445
   3.287        -25.446
   3.290        -25.448
   3.292        -25.449
   3.294        -25.451
   3.296        -25.452
   3.298        -25.454
   3.301        -25.456
   3.303        -25.457
   3.305        -25.459
   3.307        -25.461
   3.309        -25.463
   3.311        -25.464
   3.313        -25.466
   3.316        -25.468
   3.318        -25.470
   3.320        -25.471
   3.322        -25.473
   3.324        -25.475
   3.327        -25.477
   3.329        -25.479
   3.331        -25.481
   3.333        -25.482
   3.335        -25.484
   3.337        -25.486
   3.340        -25.488
   3.342        -25.490
   3.344        -25.491
   3.346        -25.493
   3.348        -25.495
   3.350        -25.497
   3.352        -25.499
   3.355        -25.501
   3.357        -25.502
   3.359        -25.504
   3.361        -25.506
   3.363        -25.508
   3.366        -25.509
   3.368        -25.511
   3.370        -25.513
   3.372        -25.515
   3.374        -25.516
   3.376        -25.518
   3.379        -25.520
   3.381        -25.522
   3.383        -25.524
   3.385        -25.525
   3.387        -25.527
   3.389        -25.529
   3.392        -25.530
   3.394        -25.532
   3.396        -25.534
   3.398        -25.535
   3.400        -25.537
   3.402        -25.538
   3.405        -25.540
   3.407        -25.541
   3.409        -25.543
   3.411        -25.544
   3.413        -25.546
   3.416        -25.547
   3.418        -25.549
   3.420        -25.550
   3.422        -25.552
   3.424        -25.553
   3.426        -25.555
   3.429        -25.556
   3.431        -25.558
   3.433        -25.559
   3.435        -25.561
   3.437        -25.562
   3.439        -25.564
   3.442        -25.565
   3.444        -25.567
   3.446        -25.568
   3.448        -25.570
   3.450        -25.571
   3.452        -25.572
   3.455        -25.574
   3.457        -25.575
   3.459        -25.577
   3.461        -25.578
   3.463        -25.580
   3.466        -25.581
   3.468        -25.583
   3.470        -25.584
   3.472        -25.586
   3.474        -25.587
   3.476        -25.589
   3.478        -25.590
   3.481        -25.592
   3.483        -25.593
   3.485        -25.594
   3.487        -25.596
   3.489        -25.597
   3.492        -25.599
   3.494        -25.600
   3.496        -25.602
   3.498        -25.603
   3.500        -25.604
   3.502        -25.606
   3.505        -25.607
   3.507        -25.609
   3.509        -25.610
   3.511        -25.611
   3.513        -25.613
   3.515        -25.614
   3.518        -25.615
   3.520        -25.617
   3.522        -25.618
   3.524        -25.619
   3.526        -25.621
   3.528        -25.622
   3.531        -25.623
   3.533        -25.624
   3.535        -25.626
   3.537        -25.627
   3.539        -25.628
   3.541        -25.630
   3.544        -25.631
   3.546        -25.632
   3.548        -25.634
   3.550        -25.635
   3.552        -25.636
   3.555        -25.638
   3.557        -25.639
   3.559        -25.640
   3.561        -25.642
   3.563        -25.643
   3.565        -25.644
   3.568        -25.646
   3.570        -25.647
   3.572        -25.648
   3.574        -25.649
   3.576        -25.651
   3.578        -25.652
   3.581        -25.653
   3.583        -25.654
   3.585        -25.656
   3.587        -25.657
   3.589        -25.658
   3.591        -25.659
   3.594        -25.661
   3.596        -25.662
   3.598        -25.663
   3.600        -25.664
   3.602        -25.665
   3.604        -25.667
   3.607        -25.668
   3.609        -25.669
   3.611        -25.670
   3.613        -25.671
   3.615        -25.672
   3.617        -25.673
   3.620        -25.675
   3.622        -25.676
   3.624        -25.677
   3.626        -25.678
   3.628        -25.679
   3.630        -25.680
   3.633        -25.681
   3.635        -25.682
   3.637        -25.684
   3.639        -25.685
   3.641        -25.686
   3.644        -25.687
   3.646        -25.688
   3.648        -25.689
   3.650        -25.690
   3.652        -25.691
   3.654        -25.692
   3.657        -25.693
   3.659        -25.694
   3.661        -25.695
   3.663        -25.697
   3.665        -25.698
   3.667        -25.699
   3.670        -25.700
   3.672        -25.701
   3.674        -25.702
   3.676        -25.703
   3.678        -25.704
   3.680        -25.705
   3.683        -25.706
   3.685        -25.707
   3.687        -25.708
   3.689        -25.709
   3.691        -25.710
   3.693        -25.711
   3.696        -25.712
   3.698        -25.713
   3.700        -25.714
   3.702        -25.715
   3.704        -25.716
   3.706        -25.717
   3.709        -25.718
   3.711        -25.719
   3.713        -25.720
   3.715        -25.721
   3.717        -25.722
   3.719        -25.723
   3.722        -25.724
   3.724        -25.725
   3.726        -25.726
   3.728        -25.727
   3.730        -25.728
   3.733        -25.729
   3.735        -25.730
   3.737        -25.731
   3.739        -25.732
   3.741        -25.733
   3.743        -25.734
   3.746        -25.735
   3.748        -25.735
   3.750        -25.736
   3.752        -25.737
   3.754        -25.738
   3.756        -25.739
   3.759        -25.740
   3.761        -25.741
   3.763        -25.742
   3.765        -25.743
   3.767        -25.744
   3.769        -25.745
   3.772        -25.746
   3.774        -25.747
   3.776        -25.748
   3.778        -25.749
   3.780        -25.750
   3.782        -25.751
   3.785        -25.752
   3.787        -25.753
   3.789        -25.755
   3.791        -25.756
   3.793        -25.757
   3.795        -25.758
   3.798        -25.759
   3.800        -25.761
   3.802        -25.762
   3.804        -25.764
   3.806        -25.766
   3.809        -25.768
   3.811        -25.770
   3.813        -25.772
   3.815        -25.774
   3.817        -25.776
   3.819        -25.778
   3.822        -25.781
   3.824        -25.785
   3.826        -25.788
   3.828        -25.792
   3.830        -25.795
   3.832        -25.799
   3.835        -25.802
   3.837        -25.806
   3.839        -25.809
   3.841        -25.813
   3.843        -25.816
   3.845        -25.819
   3.848        -25.822
   3.850        -25.825
   3.852        -25.828
   3.854        -25.831
   3.856        -25.834
   3.858        -25.837
   3.861        -25.840
   3.863        -25.841
   3.865        -25.842
   3.867        -25.843
   3.869        -25.844
   3.871        -25.845
   3.874        -25.845
   3.876        -25.846
   3.878        -25.847
   3.880        -25.848
   3.882        -25.849
   3.885        -25.850
   3.887        -25.851
   3.889        -25.852
   3.891        -25.852
   3.899        -25.855
   3.912        -25.861
   3.925        -25.867
   3.938        -25.873
   3.951        -25.878
   3.964        -25.883
   3.977        -25.888
   3.990        -25.893
   4.003        -25.898
   4.016        -25.903
   4.029        -25.907
   4.042        -25.912
   4.055        -25.917
   4.068        -25.921
   4.081        -25.926
   4.094        -25.931
   4.107        -25.935
   4.120        -25.940
   4.133        -25.945
   4.146        -25.949
   4.159        -25.953
   4.172        -25.958
   4.185        -25.961
   4.198        -25.965
   4.211        -25.968
   4.224        -25.971
   4.237        -25.975
   4.250        -25.978
   4.263        -25.982
   4.276        -25.987
   4.289        -25.991
   4.302        -25.997
   4.315        -26.002
   4.328        -26.008
   4.341        -26.015
   4.354        -26.022
   4.367        -26.029
   4.380        -26.037
   4.393        -26.046
   4.406        -26.055
   4.420        -26.064
   4.432        -26.074
   4.445        -26.085
   4.459        -26.096
   4.471        -26.107
   4.484        -26.118
   4.498        -26.130
   4.510        -26.142
   4.524        -26.154
   4.537        -26.167
   4.550        -26.180
   4.563        -26.193
   4.576        -26.206
   4.589        -26.220
   4.602        -26.233
   4.615        -26.247
   4.628        -26.261
   4.641        -26.276
   4.654        -26.290
   4.667        -26.305
   4.680        -26.319
   4.693        -26.334
   4.706        -26.349
   4.719        -26.365
   4.732        -26.380
   4.745        -26.395
   4.758        -26.411
   4.771        -26.427
   4.784        -26.443
   4.797        -26.459
   4.810        -26.475
   4.823        -26.491
   4.836        -26.508
   4.849        -26.524
   4.862        -26.541
   4.875        -26.558
   4.888        -26.575
   4.901        -26.592
   4.914        -26.609
   4.927        -26.627
   4.940        -26.644
   4.953        -26.662
   4.966        -26.680
   4.979        -26.698
   4.992        -26.716
   5.005        -26.735
   5.018        -26.753
   5.031        -26.772
   5.044        -26.790
   5.057        -26.810
   5.070        -26.829
   5.083        -26.848
   5.096        -26.867
   5.109        -26.887
   5.123        -26.907
   5.136        -26.926
   5.149        -26.946
   5.162        -26.966
   5.175        -26.986
   5.188        -27.006
   5.201        -27.027
   5.214        -27.047
   5.227        -27.067
   5.240        -27.088
   5.253        -27.108
   5.266        -27.128
   5.279        -27.149
   5.292        -27.169
   5.305        -27.190
   5.318        -27.210
   5.331        -27.230
   5.344        -27.251
   5.357        -27.272
   5.370        -27.292
   5.383        -27.313
   5.396        -27.334
   5.409        -27.355
   5.422        -27.376
   5.435        -27.398
   5.448        -27.420
   5.461        -27.442
   5.474        -27.464
   5.487        -27.486
   5.500        -27.509
   5.513        -27.532
   5.526        -27.555
   5.539        -27.578
   5.552        -27.602
   5.565        -27.626
   5.578        -27.650
   5.591        -27.675
   5.604        -27.700
   5.617        -27.725
   5.630        -27.751
   5.643        -27.776
   5.656        -27.802
   5.669        -27.829
   5.682        -27.856
   5.695        -27.883
   5.708        -27.911
   5.721        -27.939
   5.734        -27.968
   5.748        -27.997
   5.761        -28.026
   5.774        -28.057
   5.787        -28.088
   5.800        -28.119
   5.813        -28.150
   5.826        -28.182
   5.839        -28.215
   5.852        -28.249
   5.865        -28.283
   5.878        -28.317
   5.891        -28.353
   5.904        -28.389
   5.917        -28.425
   5.930        -28.463
   5.943        -28.502
   5.956        -28.541
   5.969        -28.580
   5.982        -28.620
   5.995        -28.662
   6.008        -28.705
   6.021        -28.748
   6.034        -28.792
   6.047        -28.836
   6.060        -28.883
   6.073        -28.931
   6.086        -28.978
   6.099        -29.028
   6.112        -29.079
   6.125        -29.131
   6.138        -29.183
   6.151        -29.236
   6.164        -29.292
   6.177        -29.349
   6.190        -29.406
   6.203        -29.465
   6.216        -29.526
   6.229        -29.589
   6.242        -29.652
   6.255        -29.716
   6.268        -29.785
   6.281        -29.855
   6.294        -29.925
   6.307        -29.996
   6.320        -30.068
   6.334        -30.145
   6.346        -30.223
   6.359        -30.302
   6.372        -30.383
   6.386        -30.467
   6.399        -30.554
   6.411        -30.641
   6.425        -30.730
   6.438        -30.826
   6.451        -30.923
   6.464        -31.021
   6.477        -31.117
   6.490        -31.218
   6.503        -31.327
   6.516        -31.436
   6.529        -31.545
   6.542        -31.660
   6.555        -31.779
   6.568        -31.901
   6.581        -32.021
   6.594        -32.148
   6.607        -32.285
   6.620        -32.423
   6.633        -32.560
   6.646        -32.694
   6.659        -32.839
   6.672        -32.993
   6.685        -33.145
   6.698        -33.301
   6.711        -33.464
   6.724        -33.636
   6.737        -33.808
   6.750        -33.974
   6.763        -34.159
   6.776        -34.359
   6.789        -34.556
   6.802        -34.747
   6.815        -34.932
   6.828        -35.146
   6.841        -35.366
   6.854        -35.581
   6.867        -36.051
   6.880        -36.883
   6.893        -40.593
